#Acq. time (s)=	2
#Accumulations=	10
#Range (eV)=	2...1
#Windows=	11
#Autofocus=	Off
#AutoExposure=	Off
#Spike filter=	Multiple accum.
#Delay time (s)=	0
#Binning=	1
#Readout mode=	Signal
#DeNoise=	Off
#ICS correction=	Off
#Dark correction=	Off
#Inst. Process=	Off
#Instrument=	LabRAM HR Evol
#Detector=	Syncerity OE
#Objective=	x10_VIS
#Grating=	600 (500nm)
#ND Filter=	3.2%
#Laser=	442nm_Notch
#Hole=	70.0087
#Range=	Visible
#Project=	Paty
#Sample=	
#Site=	15-06-22
#Title=	CdSe1
#Remark=	
#Date=	15.06.2022 19:21
#Acquired=	15.06.2022 19:21:04
2.79565	20.4444
2.79532	27.1111
2.79498	25.7778
2.79465	25.5556
2.79432	24
2.79399	24.6667
2.79365	23.5556
2.79332	23.1111
2.79299	26.8889
2.79265	23.1111
2.79232	23.1111
2.79199	25.3333
2.79166	26.2222
2.79133	26.4444
2.79099	25.5556
2.79066	24.2222
2.79033	21.7778
2.79	22
2.78967	26.2222
2.78933	23.1111
2.789	24.4444
2.78867	23.3333
2.78834	23.5556
2.78801	24.4444
2.78768	24.8889
2.78734	25.7778
2.78701	23.5556
2.78668	25.7778
2.78635	24.2222
2.78602	27.7778
2.78569	24.4444
2.78536	26.4444
2.78503	25.5556
2.7847	27.1111
2.78437	25.3333
2.78404	26.4444
2.78371	26.6667
2.78338	26.2222
2.78305	26
2.78272	25.3333
2.78239	27.3333
2.78206	26.4444
2.78173	27.1111
2.7814	24.4444
2.78107	27.7778
2.78074	28.4444
2.78041	24.8889
2.78008	26
2.77975	27.3333
2.77942	28
2.77909	26.8889
2.77876	26.8889
2.77843	26.6667
2.7781	28.6667
2.77777	25.1111
2.77744	26.8889
2.77711	24
2.77679	26.8889
2.77646	28.4444
2.77613	26
2.7758	29.5556
2.77547	30.4444
2.77514	28.8889
2.77482	26.6667
2.77449	29.7778
2.77416	28.6667
2.77383	29.7778
2.7735	29.3333
2.77318	28
2.77285	28.4444
2.77252	28.4444
2.77219	25.3333
2.77186	28
2.77154	26.2222
2.77121	26.6667
2.77088	27.3333
2.77056	29.1111
2.77023	29.3333
2.7699	25.5556
2.76957	27.1111
2.76925	30.6667
2.76892	27.5556
2.76859	28.2222
2.76827	28.6667
2.76794	32.6667
2.76761	28
2.76729	27.1111
2.76696	28.2222
2.76664	29.5556
2.76631	29.3333
2.76598	26.2222
2.76566	27.3333
2.76533	28.2222
2.76501	32.8889
2.76468	28
2.76435	25.3333
2.76403	30.2222
2.7637	30.2222
2.76338	27.7778
2.76305	29.3333
2.76273	27.5556
2.7624	26
2.76208	29.5556
2.76175	28.8889
2.76143	28.4444
2.7611	30.8889
2.76078	26.6667
2.76045	28.4444
2.76013	26.6667
2.7598	28.4444
2.75948	28.4444
2.75915	26.4444
2.75883	29.3333
2.75851	29.3333
2.75818	26.8889
2.75786	31.5556
2.75753	30.2222
2.75721	28.8889
2.75688	27.7778
2.75656	31.1111
2.75624	28.4444
2.75591	30.4444
2.75559	30.4444
2.75527	30.4444
2.75494	28.2222
2.75462	30.2222
2.7543	25.1111
2.75397	27.7778
2.75365	28.6667
2.75333	30.4444
2.753	30
2.75268	30.2222
2.75236	26.8889
2.75204	31.5556
2.75171	30
2.75139	30.2222
2.75107	31.5556
2.75075	28.6667
2.75042	30.8889
2.7501	28.8889
2.74978	28.4444
2.74946	29.5556
2.74914	29.1111
2.74881	28.8889
2.74849	30.8889
2.74817	32
2.74785	27.1111
2.74753	28.8889
2.7472	26.2222
2.74688	28.8889
2.74656	30.2222
2.74624	27.5556
2.74592	31.3333
2.7456	27.5556
2.74528	27.7778
2.74496	27.1111
2.74464	27.7778
2.74431	30.8889
2.74399	29.7778
2.74367	30
2.74335	26.6667
2.74303	29.3333
2.74271	28.4444
2.74239	29.1111
2.74207	32
2.74175	27.3333
2.74143	30.6667
2.74111	30.8889
2.74079	30
2.74047	29.1111
2.74015	27.7778
2.73983	32.2222
2.73951	30.2222
2.73919	32
2.73887	31.1111
2.73855	29.3333
2.73823	27.3333
2.73791	28.4444
2.73759	32
2.73728	28.2222
2.73696	28
2.73664	29.3333
2.73632	31.3333
2.736	31.7778
2.73568	30.2222
2.73536	28.6667
2.73504	31.7778
2.73472	30.6667
2.73441	31.1111
2.73409	28.6667
2.73377	30
2.73345	30
2.73313	26.8889
2.73281	27.7778
2.7325	30.6667
2.73218	30.2222
2.73186	31.3333
2.73154	32
2.73123	29.3333
2.73091	30.4444
2.73059	31.5556
2.73027	35.1111
2.72996	30.6667
2.72964	30.2222
2.72932	30.2222
2.729	31.3333
2.72869	32
2.72837	30.2222
2.72805	29.3333
2.72774	33.3333
2.72742	30.4444
2.7271	33.3333
2.72679	29.1111
2.72647	32.2222
2.72615	32.4444
2.72584	31.3333
2.72552	29.5556
2.7252	32
2.72489	35.7778
2.72457	30.8889
2.72426	31.5556
2.72394	31.5556
2.72362	33.7778
2.72331	28.8889
2.72299	28.2222
2.72268	33.1111
2.72236	32.4444
2.72204	29.3333
2.72173	30.2222
2.72141	32.6667
2.7211	31.7778
2.72078	30.6667
2.72047	31.5556
2.72015	33.1111
2.71984	30.4444
2.71952	32.8889
2.71921	32.4444
2.71889	31.5556
2.71858	32.6667
2.71826	29.7778
2.71795	30.6667
2.71764	31.7778
2.71732	28
2.71701	32.6667
2.71669	32.2222
2.71638	33.5556
2.71606	30.4444
2.71575	32.6667
2.71544	32.8889
2.71512	31.7778
2.71481	33.3333
2.7145	29.7778
2.71418	35.1111
2.71387	31.1111
2.71355	31.7778
2.71324	31.7778
2.71293	31.1111
2.71261	32.2222
2.7123	31.3333
2.71199	28.6667
2.71168	32.4444
2.71136	32.6667
2.71105	31.7778
2.71074	32.4444
2.71042	32.6667
2.71011	30.4444
2.7098	30
2.70949	32.8889
2.70917	33.7778
2.70886	32.2222
2.70855	32.8889
2.70824	33.5556
2.70792	32.4444
2.70761	33.1111
2.7073	32.2222
2.70699	31.3333
2.70668	33.1111
2.70637	32.4444
2.70605	34.4444
2.70574	34.4444
2.70543	33.3333
2.70512	33.7778
2.70481	31.1111
2.7045	34.6667
2.70418	34.6667
2.70387	33.7778
2.70356	32.6667
2.70325	32.2222
2.70294	34.2222
2.70263	33.3333
2.70232	32
2.70201	31.3333
2.7017	34.6667
2.70139	32.8889
2.70108	35.3333
2.70077	34.6667
2.70046	34.4444
2.70015	33.3333
2.69984	36.6667
2.69952	34.6667
2.69921	36.2222
2.6989	30.6667
2.69859	32.2222
2.69828	34.8889
2.69798	35.1111
2.69767	35.1111
2.69736	33.7778
2.69705	34.6667
2.69674	34.6667
2.69643	33.1111
2.69612	33.5556
2.69581	37.1111
2.6955	38.6667
2.69519	33.5556
2.69488	36.6667
2.69457	33.7778
2.69426	34.2222
2.69395	35.5556
2.69365	34.8889
2.69334	36.6667
2.69303	34
2.69272	34.2222
2.69241	36.2222
2.6921	37.7778
2.69179	32
2.69149	34.6667
2.69118	34.8889
2.69087	33.3333
2.69056	36.4444
2.69025	36.2222
2.68995	35.3333
2.68964	35.1111
2.68933	35.5556
2.68902	35.1111
2.68872	34.8889
2.68841	37.1111
2.6881	36.4444
2.68779	33.1111
2.68749	34.4444
2.68718	37.1111
2.68687	37.7778
2.68656	34.6667
2.68626	35.3333
2.68595	36.6667
2.68564	35.1111
2.68534	35.1111
2.68503	37.3333
2.68472	36.8889
2.68442	36.2222
2.68411	36.2222
2.6838	36.6667
2.6835	37.1111
2.68319	37.3333
2.68289	38.4444
2.68258	37.1111
2.68227	36.6667
2.68197	35.3333
2.68166	35.7778
2.68136	35.3333
2.68105	37.1111
2.68074	34.8889
2.68044	37.1111
2.68013	38
2.67983	37.3333
2.67952	38.8889
2.67922	41.1111
2.67891	35.7778
2.67861	34.8889
2.6783	39.1111
2.678	33.1111
2.67769	38
2.67739	38
2.67708	38
2.67678	39.3333
2.67647	39.3333
2.67617	35.7778
2.67586	37.7778
2.67556	36.6667
2.67525	37.1111
2.67495	34.4444
2.67464	36
2.67434	41.7778
2.67404	38.4444
2.67373	39.7778
2.67343	34.8889
2.67312	37.7778
2.67282	38
2.67252	37.7778
2.67221	38.4444
2.67191	39.7778
2.67161	37.3333
2.6713	41.5556
2.671	37.7778
2.6707	37.5556
2.67039	38.2222
2.67009	40
2.66979	41.5556
2.66948	38.8889
2.66918	37.3333
2.66888	38.4444
2.66857	38.4444
2.66827	37.3333
2.66797	37.3333
2.66767	38.2222
2.66736	38.4444
2.66706	38.8889
2.66676	40.6667
2.66646	39.3333
2.66615	41.1111
2.66585	39.3333
2.66555	40.6667
2.66525	38.6667
2.66495	41.5556
2.66464	39.7778
2.66434	40.6667
2.66404	40.4444
2.66374	40.2222
2.66344	39.1111
2.66314	41.3333
2.66283	44
2.66253	37.3333
2.66223	40.8889
2.66193	42
2.66163	41.7778
2.66133	42.4444
2.66103	44
2.66073	41.7778
2.66042	43.7778
2.66012	40.2222
2.65982	42.8889
2.65952	43.5556
2.65922	43.5556
2.65892	44.4444
2.65862	44.6667
2.65832	40
2.65802	42.2222
2.65772	44
2.65742	40.8889
2.65712	42.2222
2.65682	40.4444
2.65652	44.4444
2.65622	43.1111
2.65592	42.4444
2.65562	39.3333
2.65532	39.7778
2.65502	41.7778
2.65472	45.3333
2.65442	43.5556
2.65412	43.7778
2.65382	43.7778
2.65352	42.2222
2.65322	44
2.65292	45.7778
2.65262	44.8889
2.65233	42.6667
2.65203	45.7778
2.65173	47.3333
2.65143	44.6667
2.65113	43.1111
2.65083	42.2222
2.65053	45.5556
2.65023	44.2222
2.64994	46.2222
2.64964	46
2.64934	44
2.64904	46.4444
2.64874	45.5556
2.64844	46.2222
2.64815	43.7778
2.64785	47.5556
2.64755	45.1111
2.64725	43.7778
2.64695	46.6667
2.64666	44.4444
2.64636	44.4444
2.64606	46
2.64576	43.3333
2.64547	42.8889
2.64517	45.3333
2.64487	45.1111
2.64457	45.1111
2.64428	46.6667
2.64398	48.4444
2.64368	48.6667
2.64339	47.7778
2.64309	45.3333
2.64279	48.4444
2.6425	45.7778
2.6422	46.8889
2.6419	47.7778
2.64161	52.2222
2.64131	47.5556
2.64101	44.8889
2.64072	46.2222
2.64042	48.4444
2.64012	50.2222
2.63983	48.6667
2.63953	49.7778
2.63924	50.8889
2.63894	48.2222
2.63864	47.5556
2.63835	53.7778
2.63805	49.7778
2.63776	47.7778
2.63746	47.7778
2.63717	51.1111
2.63687	48.8889
2.63657	48.4444
2.63628	49.5556
2.63598	50.6667
2.63569	46.8889
2.63539	50
2.6351	50
2.6348	47.5556
2.63451	52
2.63421	47.7778
2.63392	46.8889
2.63363	52.6667
2.63333	49.3333
2.63304	51.3333
2.63274	50.6667
2.63245	48.8889
2.63215	52.4444
2.63186	49.7778
2.63156	52.4444
2.63127	57.3333
2.63098	55.3333
2.63068	54
2.63039	52.2222
2.63009	54
2.6298	53.1111
2.62951	49.1111
2.62921	53.5556
2.62892	53.3333
2.62863	53.5556
2.62833	53.1111
2.62804	51.1111
2.62775	52.6667
2.62745	58
2.62716	58.2222
2.62687	53.1111
2.62657	54
2.62628	54.8889
2.62599	56.2222
2.62569	52.4444
2.6254	55.1111
2.62511	56.4444
2.62482	55.3333
2.62452	57.1111
2.62423	56.6667
2.62394	57.1111
2.62365	56.8889
2.62335	54.6667
2.62306	54.4444
2.62277	56.4444
2.62248	60.2222
2.62218	56.2222
2.62189	58.2222
2.6216	57.7778
2.62131	56
2.62102	56.6667
2.62073	60.4444
2.62043	59.7778
2.62014	63.1111
2.61985	57.1111
2.61956	57.5556
2.61927	60.8889
2.61898	56.2222
2.61869	59.7778
2.61839	59.7778
2.6181	57.3333
2.61781	60
2.61752	60.8889
2.61723	58.6667
2.61694	60.4444
2.61665	59.3333
2.61636	60.2222
2.61607	61.5556
2.61578	62
2.61549	58.8889
2.6152	60.6667
2.61491	65.1111
2.61462	58.8889
2.61432	62.6667
2.61403	64.2222
2.61374	59.7778
2.61345	59.1111
2.61316	67.5556
2.61287	63.1111
2.61258	63.7778
2.6123	64
2.61201	67.3333
2.61172	66.6667
2.61143	62.6667
2.61114	65.3333
2.61085	63.7778
2.61056	66.8889
2.61027	65.1111
2.60998	64.4444
2.60969	67.1111
2.6094	67.3333
2.60911	65.3333
2.60882	67.5556
2.60853	69.1111
2.60825	63.1111
2.60796	63.1111
2.60767	68.8889
2.60738	66.6667
2.60709	67.3333
2.6068	65.3333
2.60651	69.5556
2.60623	66.8889
2.60594	66.6667
2.60565	65.5556
2.60536	67.3333
2.60507	72.4444
2.60478	72.6667
2.6045	70
2.60421	68.8889
2.60392	69.5556
2.60363	69.5556
2.60335	67.7778
2.60306	71.7778
2.60277	71.3333
2.60248	70.4445
2.6022	74.4444
2.60191	75.3333
2.60162	69.7778
2.60133	71.7778
2.60105	71.7778
2.60076	71.3333
2.60047	76.4444
2.60018	73.5556
2.5999	78.4444
2.59961	76
2.59932	74
2.59904	77.5556
2.59875	74.2222
2.59846	80.4444
2.59818	75.1111
2.59789	74.4444
2.5976	74
2.59732	82.8889
2.59703	76
2.59675	75.1111
2.59646	75.1111
2.59617	77.7778
2.59589	77.1111
2.5956	78.2222
2.59532	75.3333
2.59503	80.6667
2.59474	80.2222
2.59446	75.3333
2.59417	82.4444
2.59389	78
2.5936	77.1111
2.59332	76.4444
2.59303	81.3333
2.59275	79.3333
2.59246	84.6667
2.59218	81.3333
2.59189	86.2222
2.59161	81.3333
2.59132	81.5556
2.59104	78.6667
2.59075	86.2222
2.59047	85.3333
2.59018	86.4444
2.5899	86
2.58961	87.3333
2.58933	84.6667
2.58904	79.5556
2.58876	85.1111
2.58847	83.3333
2.58819	89.5556
2.58791	83.3333
2.58762	88
2.58734	84.8889
2.58705	91.3333
2.58677	88.2222
2.58649	87.5556
2.5862	90
2.58592	90.8889
2.58563	87.3333
2.58535	87.1111
2.58507	89.5556
2.58478	86.8889
2.5845	87.7778
2.58422	93.7778
2.58393	93.3333
2.58365	95.5556
2.58337	92.8889
2.58309	90.4444
2.5828	94.2222
2.58252	91.5556
2.58224	94
2.58195	94.8889
2.58167	95.1111
2.58139	94.6667
2.58111	93.5556
2.58082	92.4444
2.58054	94.4444
2.58026	96.4444
2.57998	94.8889
2.57969	96.8889
2.57941	92.8889
2.57913	99.3333
2.57885	98.6667
2.57856	100.889
2.57828	98.8889
2.578	96.4444
2.57772	97.5556
2.57744	96.4444
2.57716	100.444
2.57687	100.222
2.57659	101.111
2.57631	99.3333
2.57603	103.111
2.57575	102.444
2.57547	100.889
2.57518	103
2.5749	103.111
2.57462	105.556
2.57434	106.889
2.57406	105.333
2.57378	106.889
2.5735	104.667
2.57322	106.222
2.57294	105.333
2.57266	109.333
2.57238	108.667
2.57209	108
2.57181	106.667
2.57153	110
2.57125	108.667
2.57097	110.667
2.57069	110.667
2.57041	111.556
2.57013	112.444
2.56985	111.778
2.56957	109.333
2.56929	113.333
2.56901	115.778
2.56873	110.667
2.56845	120.222
2.56817	113.556
2.56789	109.778
2.56761	110.889
2.56733	121.778
2.56706	114.667
2.56678	117.333
2.5665	117.556
2.56622	116
2.56594	120.889
2.56566	117.778
2.56538	122.222
2.5651	119.333
2.56482	119.333
2.56454	122.889
2.56426	123.333
2.56399	124.222
2.56371	118.222
2.56343	121.111
2.56315	127.556
2.56287	124.667
2.56259	122.444
2.56231	128.222
2.56204	131.111
2.56176	124.667
2.56148	124.222
2.5612	122.667
2.56092	127.778
2.56065	128.667
2.56037	126.667
2.56009	126.444
2.55981	131.333
2.55953	129.333
2.55926	131.333
2.55898	128.444
2.5587	128.889
2.55842	132.889
2.55815	134
2.55787	130.889
2.55759	133.778
2.55731	133.111
2.55704	136.222
2.55676	136.667
2.55648	132.444
2.55621	139.333
2.55593	142
2.55565	133.778
2.55538	140.667
2.5551	138.889
2.55482	142.667
2.55455	134.667
2.55427	139.111
2.55399	139.556
2.55372	136.667
2.55344	146.444
2.55316	145.333
2.55289	152.444
2.55261	145.556
2.55234	140.667
2.55206	144.889
2.55178	144.222
2.55151	155.556
2.55123	148.444
2.55096	150
2.55068	145.778
2.5504	148.222
2.55013	155.778
2.54985	156.889
2.54958	158.444
2.5493	150
2.54903	157.556
2.54875	158.667
2.54848	155.333
2.5482	155.778
2.54793	151.778
2.54765	159.111
2.54738	157.556
2.5471	154.222
2.54683	157.111
2.54655	156.222
2.54628	156.667
2.546	158.667
2.54573	159.333
2.54545	158.889
2.54518	161.333
2.5449	160.222
2.54463	160.889
2.54435	166.889
2.54408	163.778
2.54381	166.667
2.54353	168.889
2.54326	168.222
2.54298	176.444
2.54271	170.889
2.54244	170
2.54216	168.667
2.54189	172.222
2.54161	168.222
2.54134	173.556
2.54107	172.667
2.54079	174.889
2.54052	172.222
2.54025	176.667
2.53997	172.889
2.5397	181.111
2.53943	175.111
2.53915	177.556
2.53888	182.667
2.53861	176.444
2.53834	181.778
2.53806	181.778
2.53779	183.778
2.53752	181.111
2.53724	187.111
2.53697	185.333
2.5367	189.556
2.53643	190.667
2.53615	190.889
2.53588	191.333
2.53561	194.889
2.53534	195.556
2.53506	187.778
2.53479	184.667
2.53452	192.444
2.53425	194.222
2.53398	188.222
2.5337	197.333
2.53343	187.556
2.53316	198.222
2.53289	194.222
2.53262	197.111
2.53235	198.222
2.53207	196.444
2.5318	198.444
2.53153	198.667
2.53126	204.889
2.53099	200.889
2.53072	206.444
2.53045	204
2.53017	206.444
2.5299	207.333
2.52963	213.778
2.52936	204.889
2.52909	217.111
2.52882	210.444
2.52855	211.111
2.52828	210.667
2.52801	209.778
2.52774	218.667
2.52747	214.889
2.5272	213.111
2.52693	217.111
2.52666	222.222
2.52638	222.222
2.52611	221.556
2.52584	217.778
2.52557	222.889
2.5253	224.444
2.52503	223.556
2.52476	227.778
2.52449	220.889
2.52422	221.556
2.52395	232.444
2.52369	232.667
2.52342	225.778
2.52315	232.444
2.52288	234.444
2.52261	234.222
2.52234	234.667
2.52207	230.444
2.5218	234.222
2.52153	232.222
2.52126	234.222
2.52099	240.667
2.52072	242.889
2.52045	240
2.52018	246.444
2.51992	241.778
2.51965	244.985
2.51938	246.304
2.51911	243.864
2.51884	250.42
2.51857	244.152
2.5183	251.824
2.51804	243.784
2.51777	247.159
2.5175	249.007
2.51723	254.366
2.51696	246.799
2.51669	247.457
2.51643	260.096
2.51616	248.923
2.51589	253.086
2.51562	253.227
2.51535	254.925
2.51509	256.129
2.51482	265.333
2.51455	257.954
2.51428	257.51
2.51402	255.209
2.51375	263.685
2.51348	262.744
2.51321	262.569
2.51295	265.384
2.51268	261.349
2.51241	271.012
2.51215	270.126
2.51188	264.335
2.51161	266.761
2.51134	266.354
2.51108	273.613
2.51081	268.129
2.51054	264.114
2.51028	274.416
2.51001	269.251
2.50974	272.042
2.50948	272.142
2.50921	277.173
2.50894	275.782
2.50868	277.166
2.50841	279.975
2.50815	281.497
2.50788	283.596
2.50761	278.074
2.50735	280.327
2.50708	286.352
2.50682	286.17
2.50655	287.189
2.50628	287.53
2.50602	286.54
2.50575	288.326
2.50549	286.301
2.50522	290.95
2.50496	295.506
2.50469	290.093
2.50442	295.725
2.50416	292.861
2.50389	295.76
2.50363	295.89
2.50336	296.446
2.5031	306.475
2.50283	296.472
2.50257	298.351
2.5023	301.197
2.50204	298.165
2.50177	306.455
2.50151	303.475
2.50124	302.066
2.50098	307.347
2.50071	309.688
2.50045	304.745
2.50019	310.771
2.49992	312.832
2.49966	310.357
2.49939	309.923
2.49913	309.393
2.49886	313.148
2.4986	318.039
2.49834	311.921
2.49807	315.848
2.49781	312.866
2.49754	317.585
2.49728	318.006
2.49702	320.997
2.49675	319.2
2.49649	325.683
2.49623	315.537
2.49596	327.605
2.4957	328.605
2.49544	320.548
2.49517	323.487
2.49491	329.277
2.49465	330.983
2.49438	332.064
2.49412	331.404
2.49386	338.743
2.49359	337.373
2.49333	337.751
2.49307	339.947
2.49305	340
2.49279	337.333
2.49252	342
2.49226	329.778
2.492	340.889
2.49173	348.222
2.49147	340.222
2.49121	347.778
2.49094	344
2.49068	344.444
2.49041	344.444
2.49015	353.778
2.48989	352.667
2.48963	359.556
2.48936	350.667
2.4891	348.667
2.48884	358.667
2.48857	355.111
2.48831	361.333
2.48805	365.111
2.48778	370.889
2.48752	361.333
2.48726	358
2.487	365.333
2.48673	371.778
2.48647	366.667
2.48621	375.556
2.48595	364.667
2.48568	379.333
2.48542	380.444
2.48516	377.778
2.4849	384.222
2.48464	377.111
2.48437	372.667
2.48411	378
2.48385	390.667
2.48359	373.111
2.48333	390
2.48306	385.778
2.4828	393.556
2.48254	394.222
2.48228	388.889
2.48202	389.556
2.48176	397.111
2.48149	395.333
2.48123	392.222
2.48097	402
2.48071	395.333
2.48045	395.778
2.48019	407.333
2.47993	406.667
2.47967	404.889
2.4794	410.667
2.47914	406.889
2.47888	403.778
2.47862	414
2.47836	400
2.4781	411.333
2.47784	413.778
2.47758	403.333
2.47732	410.667
2.47706	430.444
2.4768	417.556
2.47654	420.444
2.47628	426.222
2.47602	427.111
2.47576	427.333
2.4755	431.111
2.47524	431.778
2.47498	432
2.47472	432.889
2.47446	437.778
2.4742	430.222
2.47394	439.111
2.47368	432.889
2.47342	447.778
2.47316	450.444
2.4729	448.222
2.47264	448.222
2.47238	445.556
2.47212	454.667
2.47186	443.111
2.4716	448.222
2.47134	458.889
2.47108	456.889
2.47082	448.667
2.47057	469.333
2.47031	455.333
2.47005	460.667
2.46979	474.444
2.46953	464.667
2.46927	473.333
2.46901	469.778
2.46875	464.667
2.4685	478.222
2.46824	487.556
2.46798	468.444
2.46772	471.333
2.46746	482.444
2.4672	468
2.46694	483.111
2.46669	481.556
2.46643	490.667
2.46617	483.556
2.46591	491.333
2.46565	482.444
2.4654	494.889
2.46514	499.556
2.46488	500
2.46462	500.889
2.46437	498.444
2.46411	500.222
2.46385	504.444
2.46359	500.444
2.46334	501.111
2.46308	505.333
2.46282	507.556
2.46256	506.667
2.46231	513.778
2.46205	504.667
2.46179	519.333
2.46153	515.111
2.46128	514.222
2.46102	505.333
2.46076	522.222
2.46051	518.444
2.46025	522.444
2.45999	526.889
2.45974	524.667
2.45948	526
2.45922	522.444
2.45897	529.556
2.45871	539.778
2.45845	537.333
2.4582	535.333
2.45794	532.667
2.45768	529.333
2.45743	537.778
2.45717	539.111
2.45692	550
2.45666	542.889
2.4564	548
2.45615	549.111
2.45589	550.445
2.45564	547.333
2.45538	553.333
2.45513	574.222
2.45487	554.667
2.45461	558.667
2.45436	560.444
2.4541	561.333
2.45385	550.667
2.45359	553.778
2.45334	561.333
2.45308	561.333
2.45283	562.222
2.45257	564.222
2.45232	564
2.45206	579.556
2.45181	581.111
2.45155	575.556
2.4513	573.778
2.45104	572.444
2.45079	572.889
2.45053	582.889
2.45028	579.333
2.45002	582.889
2.44977	588.667
2.44951	586.222
2.44926	600.889
2.449	589.778
2.44875	594.889
2.4485	588
2.44824	596.222
2.44799	606.667
2.44773	596.222
2.44748	605.333
2.44723	594
2.44697	596.667
2.44672	602.222
2.44646	601.556
2.44621	605.556
2.44596	610.667
2.4457	607.333
2.44545	628.222
2.4452	607.556
2.44494	616.667
2.44469	608
2.44444	617.111
2.44418	628
2.44393	618.889
2.44368	617.111
2.44342	625.556
2.44317	624.222
2.44292	618.667
2.44266	622.889
2.44241	618.444
2.44216	641.111
2.4419	633.778
2.44165	635.778
2.4414	628.222
2.44115	637.556
2.44089	633.111
2.44064	639.111
2.44039	644.667
2.44014	652.222
2.43988	645.556
2.43963	647.778
2.43938	644.667
2.43913	649.556
2.43887	652.667
2.43862	648
2.43837	654.667
2.43812	659.778
2.43787	657.556
2.43761	646.222
2.43736	647.333
2.43711	665.556
2.43686	661.333
2.43661	679.556
2.43636	669.111
2.4361	651.778
2.43585	666.222
2.4356	682.889
2.43535	681.556
2.4351	675.111
2.43485	666.444
2.4346	677.778
2.43434	674.889
2.43409	677.778
2.43384	677.333
2.43359	686.889
2.43334	680.444
2.43309	668.222
2.43284	690.222
2.43259	675.778
2.43234	691.556
2.43209	686.222
2.43183	690.222
2.43158	697.111
2.43133	690.889
2.43108	692
2.43083	687.111
2.43058	684.667
2.43033	701.333
2.43008	689.778
2.42983	687.778
2.42958	703.778
2.42933	693.333
2.42908	695.111
2.42883	699.111
2.42858	716.889
2.42833	706.222
2.42808	698
2.42783	715.778
2.42758	700.222
2.42733	704
2.42708	720
2.42683	716
2.42658	716.667
2.42633	712
2.42608	716.889
2.42583	719.556
2.42558	712
2.42534	715.111
2.42509	710.667
2.42484	731.556
2.42459	715.556
2.42434	742.444
2.42409	721.111
2.42384	728.444
2.42359	737.556
2.42334	729.556
2.42309	729.778
2.42285	737.333
2.4226	729.556
2.42235	731.111
2.4221	738.889
2.42185	744
2.4216	748.444
2.42135	744.222
2.42111	738.444
2.42086	738.889
2.42061	748.889
2.42036	742.222
2.42011	759.333
2.41986	747.556
2.41962	745.111
2.41937	741.556
2.41912	755.111
2.41887	752.222
2.41862	750.444
2.41838	750
2.41813	754.222
2.41788	752
2.41763	752.889
2.41739	756
2.41714	760.445
2.41689	762.222
2.41664	759.333
2.4164	763.111
2.41615	751.333
2.4159	769.778
2.41565	766.667
2.41541	769.556
2.41516	765.111
2.41491	755.333
2.41467	777.778
2.41442	769.111
2.41417	774
2.41392	771.778
2.41368	769.778
2.41343	776.222
2.41318	776.444
2.41294	779.556
2.41269	778.222
2.41244	788.222
2.4122	792.222
2.41195	779.333
2.41171	773.556
2.41146	782.667
2.41121	781.333
2.41097	770
2.41072	786.444
2.41047	782.222
2.41023	790
2.40998	784.222
2.40974	771.333
2.40949	793.111
2.40924	786.444
2.409	794
2.40875	791.778
2.40851	793.333
2.40826	806.444
2.40802	793.778
2.40777	790.667
2.40752	790
2.40728	810.889
2.40703	792
2.40679	812.889
2.40654	792.444
2.4063	810.222
2.40605	802.667
2.40581	806
2.40556	811.778
2.40532	798.667
2.40507	797.111
2.40483	820.889
2.40458	817.778
2.40434	803.556
2.40409	820.889
2.40385	809.111
2.4036	808.889
2.40336	806.444
2.40311	820.889
2.40287	817.555
2.40263	817.111
2.40238	827.111
2.40214	818.222
2.40189	819.111
2.40165	814.444
2.4014	808.667
2.40116	815.556
2.40092	818.889
2.40067	824.889
2.40043	820.889
2.40018	814
2.39994	824
2.3997	823.556
2.39945	825.555
2.39921	827.111
2.39896	818.222
2.39872	823.778
2.39848	823.778
2.39823	828.889
2.39799	825.556
2.39775	821.778
2.3975	817.333
2.39726	828
2.39702	833.555
2.39677	831.333
2.39653	835.111
2.39629	842.222
2.39604	840.222
2.3958	838.889
2.39556	824
2.39532	839.333
2.39507	836.222
2.39483	828
2.39459	836.889
2.39434	852.444
2.3941	844.222
2.39386	832.444
2.39362	840.444
2.39337	847.778
2.39313	837.778
2.39289	834.222
2.39265	834.889
2.3924	854.444
2.39216	846
2.39192	848.667
2.39168	846.889
2.39144	861.778
2.39119	846.222
2.39095	842.889
2.39071	848.667
2.39047	862
2.39023	851.111
2.38998	840.444
2.38974	853.333
2.3895	856
2.38926	842
2.38902	853.333
2.38878	841.778
2.38853	854.667
2.38829	849.333
2.38805	852.889
2.38781	863.778
2.38757	856.667
2.38733	852.889
2.38709	860.222
2.38684	862.667
2.3866	856.444
2.38636	856.667
2.38612	849.778
2.38588	844.444
2.38564	859.333
2.3854	856.889
2.38516	853.333
2.38492	859.333
2.38468	860.667
2.38444	853.111
2.3842	858.667
2.38396	868.444
2.38371	856.444
2.38347	870.667
2.38323	854.444
2.38299	871.778
2.38275	862.889
2.38251	854.667
2.38227	861.333
2.38203	868.222
2.38179	847.111
2.38155	867.111
2.38131	848.445
2.38107	863.111
2.38083	873.556
2.38059	865.778
2.38035	872.667
2.38011	871.333
2.37987	873.111
2.37963	864.444
2.37939	879.778
2.37916	878.889
2.37892	874.667
2.37868	870.222
2.37844	878.444
2.3782	871.111
2.37796	878.889
2.37772	866.222
2.37748	877.333
2.37724	872.222
2.377	872.667
2.37676	867.333
2.37652	864.222
2.37629	859.556
2.37605	868.444
2.37581	868.667
2.37557	873.556
2.37533	873.111
2.37509	858.222
2.37485	867.556
2.37461	866.444
2.37438	892.667
2.37414	873.778
2.3739	876
2.37366	872
2.37342	875.778
2.37318	868
2.37295	869.778
2.37271	868.667
2.37247	880.222
2.37223	876.222
2.37199	875.556
2.37175	882.667
2.37152	879.111
2.37128	868.444
2.37104	868.444
2.3708	877.333
2.37057	891.556
2.37033	874.444
2.37009	894.444
2.36985	893.333
2.36962	861.111
2.36938	881.778
2.36914	887.111
2.3689	889.111
2.36867	882
2.36843	887.333
2.36819	883.111
2.36795	870.667
2.36772	877.778
2.36748	889.556
2.36724	886.667
2.36701	867.333
2.36677	888.667
2.36653	874.222
2.3663	883.556
2.36606	873.556
2.36582	880.889
2.36559	881.333
2.36535	870.889
2.36511	875.778
2.36488	871.111
2.36464	876.445
2.3644	869.333
2.36417	891.333
2.36393	873.333
2.36369	875.556
2.36346	872.444
2.36322	878.444
2.36298	880
2.36275	873.778
2.36251	877.111
2.36228	883.333
2.36204	878
2.36181	881.778
2.36157	875.333
2.36133	881.111
2.3611	864.444
2.36086	866
2.36063	876
2.36039	872
2.36016	870.222
2.35992	879.333
2.35968	875.778
2.35945	870.889
2.35921	877.333
2.35898	860.444
2.35874	854.667
2.35851	872.889
2.35827	864.222
2.35804	873.778
2.3578	874.667
2.35757	850.667
2.35733	854.667
2.3571	858
2.35686	859.555
2.35663	856
2.35639	862.889
2.35616	865.111
2.35592	864.667
2.35569	862.667
2.35545	860.889
2.35522	859.778
2.35499	870.667
2.35475	869.556
2.35452	860
2.35428	855.556
2.35405	854.667
2.35381	854.222
2.35358	854.222
2.35335	863.111
2.35311	860.222
2.35288	857.556
2.35264	852
2.35241	863.333
2.35218	845.333
2.35194	860.444
2.35171	846
2.35147	854.667
2.35124	853.333
2.35101	842.444
2.35077	853.778
2.35054	858.667
2.35031	848.667
2.35007	851.111
2.34984	848.222
2.34961	827.333
2.34937	846
2.34914	841.333
2.34891	848
2.34867	850.222
2.34844	849.556
2.34821	844.444
2.34797	850.445
2.34774	826.667
2.34751	830.667
2.34728	854.444
2.34704	842
2.34681	841.111
2.34658	850
2.34634	835.556
2.34611	839.333
2.34588	837.111
2.34565	843.556
2.34541	844.444
2.34518	843.556
2.34495	836
2.34472	826.667
2.34449	838.222
2.34425	830.222
2.34402	837.333
2.34379	827.111
2.34356	834.889
2.34332	836
2.34309	838.667
2.34286	824
2.34263	834.889
2.3424	817.778
2.34216	834
2.34193	820
2.3417	827.111
2.34147	816.889
2.34124	823.333
2.34101	826.889
2.34077	826.667
2.34054	823.111
2.34031	834.444
2.34008	818.889
2.33985	824.667
2.33962	829.667
2.33939	828.222
2.33916	814.222
2.33892	823.556
2.33869	814.444
2.33846	823.778
2.33823	814.667
2.338	806
2.33777	822.667
2.33754	804.889
2.33731	803.778
2.33708	810
2.33685	816.667
2.33662	803.556
2.33639	819.333
2.33615	795.333
2.33592	810.667
2.33569	814
2.33546	802.444
2.33523	816.667
2.335	803.111
2.33477	807.556
2.33454	812.667
2.33431	795.556
2.33408	808.222
2.33385	808.444
2.33362	808
2.33339	804.444
2.33316	799.556
2.33293	794
2.3327	805.111
2.33247	808
2.33224	792.667
2.33201	802.889
2.33178	801.111
2.33155	790.889
2.33132	792.222
2.33109	791.778
2.33086	790
2.33064	801.556
2.33041	779.778
2.33018	791.556
2.32995	798.889
2.32972	800.444
2.32949	798
2.32926	799.111
2.32903	785.778
2.3288	770.444
2.32857	788.222
2.32834	786.444
2.32811	791.333
2.32789	787.556
2.32766	782.445
2.32743	798.889
2.3272	783.778
2.32697	783.556
2.32674	792.667
2.32651	776.667
2.32629	780.222
2.32606	787.333
2.32583	780.889
2.3256	785.778
2.32537	773.111
2.32514	776.222
2.32492	788.667
2.32469	769.778
2.32446	781.778
2.32423	773.333
2.324	770.222
2.32377	776.222
2.32355	787.556
2.32332	768.667
2.32309	763.111
2.32286	784.222
2.32264	781.333
2.32241	773.556
2.32218	778.445
2.32195	767.556
2.32172	759.556
2.3215	766.889
2.32127	765.556
2.32104	770.444
2.32081	772.667
2.32059	772
2.32036	782.222
2.32013	766.667
2.31991	764.445
2.31968	774.667
2.31945	769.778
2.31922	773.111
2.319	768
2.31877	767.111
2.31854	776.444
2.31832	766.667
2.31809	761.333
2.31786	760.222
2.31764	763.556
2.31741	765.556
2.31718	758.889
2.31696	763.778
2.31673	757.333
2.3165	775.333
2.31628	770.889
2.31605	751.333
2.31582	763.111
2.3156	760.889
2.31537	760
2.31514	764
2.31492	758.667
2.31469	750.444
2.31447	752.222
2.31424	749.778
2.31401	751.556
2.31379	762.889
2.31356	750.444
2.31334	756.222
2.31311	757.778
2.31289	756.667
2.31266	751.556
2.31243	749.333
2.31221	742.889
2.31198	736.222
2.31176	752
2.31153	738.222
2.31131	748.222
2.31108	750.667
2.31086	756
2.31063	754.889
2.3104	749.778
2.31018	746.667
2.30995	748.667
2.30973	762.667
2.3095	744.889
2.30928	748.222
2.30905	736
2.30883	747.333
2.3086	752.222
2.30838	748.889
2.30815	742
2.30793	751.555
2.3077	751.333
2.30748	735.333
2.30726	736.889
2.30703	746.667
2.30681	735.333
2.30658	737.556
2.30636	737.778
2.30613	728.889
2.30591	738.444
2.30568	742.667
2.30546	738.889
2.30524	738.444
2.30501	740.667
2.30479	739.556
2.30456	745.111
2.30434	743.778
2.30412	748.444
2.30389	738.222
2.30367	736.667
2.30344	746.889
2.30322	737.111
2.303	734
2.30277	742.444
2.30255	726.222
2.30233	745.556
2.3021	744.222
2.30188	738.222
2.30165	739.333
2.30143	739.333
2.30121	732.444
2.30098	744.889
2.30076	732.889
2.30054	753.111
2.30032	746.444
2.30009	730.889
2.29987	745.333
2.29965	733.778
2.29942	739.333
2.2992	733.778
2.29898	734.667
2.29875	734.889
2.29853	715.333
2.29831	732.444
2.29809	728
2.29786	728.445
2.29764	722.889
2.29742	732.889
2.29719	731.333
2.29697	744.667
2.29675	730.444
2.29653	744.222
2.29631	722.444
2.29608	733.778
2.29586	742
2.29564	727.333
2.29542	733.556
2.29519	734
2.29497	734
2.29475	727.556
2.29453	730.667
2.29431	732.677
2.29408	726.422
2.29386	739.286
2.29364	715.335
2.29342	728.084
2.2932	720.763
2.29297	721.34
2.29275	727.061
2.29253	726.436
2.29231	731.33
2.29209	722.018
2.29187	713.096
2.29165	716.686
2.29142	723.462
2.2912	720.197
2.29098	725.664
2.29076	713.421
2.29054	723.421
2.29032	715.572
2.2901	717.043
2.28988	725.065
2.28965	720.062
2.28943	733.524
2.28921	722.823
2.28899	709.667
2.28877	719.319
2.28855	724.134
2.28833	722.957
2.28811	712.994
2.28789	718.618
2.28767	711.211
2.28745	709.782
2.28723	711.41
2.28701	712.235
2.28679	705.665
2.28656	708.964
2.28634	716.435
2.28612	717.389
2.2859	707.224
2.28568	709.955
2.28546	712.601
2.28524	709.402
2.28502	714.478
2.2848	713.092
2.28458	704.707
2.28436	708.014
2.28414	712.881
2.28392	717.502
2.2837	714.61
2.28348	710.44
2.28326	706.89
2.28304	700.523
2.28282	705.659
2.2826	708.657
2.28239	704.599
2.28217	714.723
2.28195	703.989
2.28173	706.741
2.28151	706.748
2.28129	704.586
2.28107	704.743
2.28085	697.306
2.28063	704.3
2.28041	704.967
2.28019	699.42
2.27997	701.431
2.27975	703.15
2.27954	702.927
2.27932	705.427
2.2791	705.796
2.27888	699.305
2.27866	693.988
2.27844	705.504
2.27822	699.353
2.278	699.604
2.27778	706.647
2.27757	699.269
2.27735	695.912
2.27713	699.211
2.27691	702.338
2.27669	702.436
2.27647	698.669
2.27626	694.568
2.27604	698.975
2.27582	706.223
2.2756	699.773
2.27538	696.813
2.27516	705.768
2.27495	702.347
2.27473	693.108
2.27451	696.419
2.27429	694.822
2.27407	689.735
2.27386	687.8
2.27364	690.505
2.27342	696.955
2.2732	689.427
2.27299	684.124
2.27277	693.101
2.27255	691.389
2.27233	688.68
2.27212	690.736
2.2719	701.973
2.27177	699.556
2.27156	685.778
2.27134	686.889
2.27112	688.667
2.2709	698.667
2.27068	695.333
2.27047	695.333
2.27025	682.889
2.27003	691.556
2.26981	702
2.26959	700.889
2.26938	687.778
2.26916	695.556
2.26894	701.333
2.26872	685.333
2.2685	694
2.26829	690.667
2.26807	694
2.26785	680.222
2.26763	686.889
2.26742	700.222
2.2672	687.333
2.26698	695.556
2.26676	699.556
2.26655	694.444
2.26633	687.778
2.26611	695.556
2.2659	699.333
2.26568	696.889
2.26546	682
2.26524	708.667
2.26503	688.889
2.26481	699.556
2.26459	695.333
2.26438	696.889
2.26416	696.222
2.26394	696
2.26373	698
2.26351	692.444
2.26329	696.889
2.26308	698
2.26286	696.667
2.26264	700
2.26243	708.889
2.26221	692.889
2.26199	700
2.26178	696.667
2.26156	700.222
2.26135	696.444
2.26113	703.778
2.26091	693.556
2.2607	697.111
2.26048	692.222
2.26026	700
2.26005	699.111
2.25983	705.111
2.25962	707.555
2.2594	695.778
2.25919	700
2.25897	717.556
2.25875	695.333
2.25854	697.111
2.25832	700.222
2.25811	704
2.25789	698
2.25768	707.333
2.25746	702.444
2.25724	698.444
2.25703	701.333
2.25681	700.222
2.2566	708.889
2.25638	700
2.25617	708.444
2.25595	712.444
2.25574	708
2.25552	699.333
2.25531	701.778
2.25509	692.222
2.25488	711.333
2.25466	705.778
2.25445	703.556
2.25423	713.111
2.25402	707.111
2.2538	704.222
2.25359	700.222
2.25337	707.111
2.25316	710.444
2.25294	702.444
2.25273	710.889
2.25252	706.222
2.2523	713.111
2.25209	706.222
2.25187	710.222
2.25166	705.333
2.25144	695.333
2.25123	699.778
2.25102	701.778
2.2508	708
2.25059	700.889
2.25037	710.445
2.25016	712
2.24994	722.222
2.24973	713.333
2.24952	721.778
2.2493	709.333
2.24909	716.444
2.24888	720.222
2.24866	719.556
2.24845	708.444
2.24823	702.222
2.24802	702.667
2.24781	712.445
2.24759	723.778
2.24738	720.667
2.24717	721.556
2.24695	715.111
2.24674	716.889
2.24653	721.778
2.24631	709.333
2.2461	710.444
2.24589	709.556
2.24567	716.222
2.24546	722.444
2.24525	719.111
2.24503	711.778
2.24482	711.111
2.24461	717.333
2.2444	720
2.24418	716
2.24397	710.444
2.24376	707.556
2.24354	719.556
2.24333	730.889
2.24312	709.111
2.24291	722
2.24269	710.222
2.24248	728.222
2.24227	724.222
2.24206	724.667
2.24184	724
2.24163	719.111
2.24142	710
2.24121	716
2.241	705.556
2.24078	732.222
2.24057	719.778
2.24036	717.778
2.24015	732.222
2.23993	722.889
2.23972	725.333
2.23951	732.444
2.2393	733.333
2.23909	724.444
2.23887	720.444
2.23866	716.889
2.23845	723.111
2.23824	728
2.23803	724.889
2.23782	734.889
2.23761	726.889
2.23739	733.556
2.23718	730.222
2.23697	730.222
2.23676	721.778
2.23655	741.778
2.23634	715.111
2.23613	728.444
2.23591	726.222
2.2357	733.778
2.23549	726.222
2.23528	731.778
2.23507	732.222
2.23486	728.444
2.23465	716.667
2.23444	732.667
2.23423	727.333
2.23401	743.333
2.2338	723.333
2.23359	742.444
2.23338	726
2.23317	732
2.23296	739.778
2.23275	730.444
2.23254	736.444
2.23233	733.333
2.23212	737.333
2.23191	734.667
2.2317	743.333
2.23149	737.778
2.23128	750.444
2.23107	730.667
2.23086	738.444
2.23065	735.556
2.23044	733.778
2.23023	742.667
2.23002	741.556
2.22981	747.556
2.2296	733.556
2.22939	746.222
2.22918	733.111
2.22897	746.222
2.22876	734
2.22855	741.333
2.22834	737.111
2.22813	740.222
2.22792	745.333
2.22771	744.667
2.2275	736.889
2.22729	743.111
2.22708	748.444
2.22687	749.778
2.22666	736.444
2.22645	747.778
2.22624	755.778
2.22603	756.444
2.22582	746.667
2.22561	745.111
2.22541	759.556
2.2252	738.667
2.22499	753.333
2.22478	745.556
2.22457	750.667
2.22436	755.556
2.22415	752
2.22394	761.333
2.22373	756.889
2.22353	745.778
2.22332	750.889
2.22311	748.667
2.2229	741.111
2.22269	743.556
2.22248	748.222
2.22227	756
2.22206	743.111
2.22186	756.889
2.22165	762.667
2.22144	758
2.22123	743.556
2.22102	756.889
2.22081	753.333
2.22061	760.889
2.2204	758
2.22019	755.111
2.21998	763.111
2.21977	751.111
2.21957	776.444
2.21936	755.778
2.21915	772
2.21894	769.556
2.21873	761.111
2.21853	765.556
2.21832	768.222
2.21811	764.222
2.2179	758.444
2.2177	759.778
2.21749	769.111
2.21728	767.333
2.21707	764.444
2.21687	759.556
2.21666	764.444
2.21645	775.111
2.21624	765.333
2.21604	766.667
2.21583	776
2.21562	767.778
2.21541	766
2.21521	773.556
2.215	780.222
2.21479	778.444
2.21459	757.778
2.21438	780.444
2.21417	762
2.21397	775.778
2.21376	767.111
2.21355	769.111
2.21334	774.667
2.21314	761.333
2.21293	770.889
2.21272	776
2.21252	783.111
2.21231	790.444
2.2121	785.111
2.2119	776.444
2.21169	777.333
2.21149	771.333
2.21128	777.778
2.21107	789.333
2.21087	771.556
2.21066	784
2.21045	775.556
2.21025	775.778
2.21004	787.556
2.20984	772.222
2.20963	773.556
2.20942	793.778
2.20922	794.889
2.20901	786.222
2.20881	782
2.2086	796.444
2.20839	789.333
2.20819	784.667
2.20798	786.222
2.20778	793.333
2.20757	776.667
2.20737	784.222
2.20716	789.778
2.20695	783.556
2.20675	785.555
2.20654	795.111
2.20634	800.222
2.20613	775.556
2.20593	788.444
2.20572	795.111
2.20552	798.444
2.20531	797.111
2.20511	802.889
2.2049	804.222
2.2047	798.667
2.20449	795.778
2.20429	802.444
2.20408	801.556
2.20388	800.667
2.20367	813.333
2.20347	798.667
2.20326	805.111
2.20306	808.667
2.20285	809.778
2.20265	804.222
2.20244	806.444
2.20224	814
2.20203	807.333
2.20183	808.889
2.20162	805.333
2.20142	808.222
2.20122	807.333
2.20101	798.667
2.20081	824.667
2.2006	802.889
2.2004	804.222
2.20019	816
2.19999	813.333
2.19979	804.222
2.19958	810.889
2.19938	830
2.19917	813.111
2.19897	812.222
2.19877	820
2.19856	819.778
2.19836	822.889
2.19815	828.889
2.19795	829.333
2.19775	832
2.19754	825.111
2.19734	811.778
2.19713	806.222
2.19693	806
2.19673	823.778
2.19652	826.667
2.19632	814
2.19612	832
2.19591	838.444
2.19571	820.667
2.19551	835.333
2.1953	827.556
2.1951	811.556
2.1949	828.889
2.19469	836.667
2.19449	837.778
2.19429	845.778
2.19409	838.444
2.19388	824.444
2.19368	841.556
2.19348	847.111
2.19327	844.667
2.19307	848.667
2.19287	842.444
2.19267	825.333
2.19246	850.667
2.19226	830.444
2.19206	848.889
2.19185	852.444
2.19165	841.778
2.19145	856.222
2.19125	830.889
2.19104	860.444
2.19084	840.889
2.19064	852.444
2.19044	841.333
2.19023	830
2.19003	850
2.18983	846.222
2.18963	844.889
2.18943	843.556
2.18922	863.556
2.18902	848
2.18882	858.889
2.18862	859.333
2.18842	858.889
2.18821	860
2.18801	852.667
2.18781	867.778
2.18761	848.667
2.18741	848.444
2.18721	864.667
2.187	848
2.1868	862.667
2.1866	862
2.1864	863.333
2.1862	864
2.186	875.556
2.18579	866.222
2.18559	868
2.18539	864.667
2.18519	859.556
2.18499	873.333
2.18479	871.556
2.18459	870
2.18439	889.333
2.18418	860.222
2.18398	882
2.18378	867.333
2.18358	872.444
2.18338	874.667
2.18318	881.111
2.18298	880
2.18278	873.778
2.18258	878
2.18238	880.222
2.18217	857.778
2.18197	877.333
2.18177	885.778
2.18157	880.222
2.18137	876.889
2.18117	886.444
2.18097	881.556
2.18077	885.778
2.18057	884
2.18037	892
2.18017	883.778
2.17997	883.778
2.17977	882.444
2.17957	883.111
2.17937	910
2.17917	913.333
2.17897	890.889
2.17877	900.222
2.17857	899.111
2.17837	903.111
2.17817	889.556
2.17797	910.444
2.17777	894.222
2.17757	908.222
2.17737	897.333
2.17717	887.778
2.17697	897.778
2.17677	908.222
2.17657	903.111
2.17637	900.222
2.17617	925.778
2.17597	905.111
2.17577	913.111
2.17557	913.556
2.17537	914
2.17517	914.222
2.17497	915.556
2.17477	914.889
2.17458	916.889
2.17438	913.111
2.17418	922.222
2.17398	917.111
2.17378	920
2.17358	926.889
2.17338	922.222
2.17318	931.333
2.17298	922.889
2.17278	929.333
2.17259	930.444
2.17239	932.667
2.17219	927.333
2.17199	930
2.17179	917.333
2.17159	934
2.17139	920.667
2.17119	940.444
2.171	929.333
2.1708	938
2.1706	931.555
2.1704	934
2.1702	934
2.17	955.333
2.1698	949.111
2.16961	936.444
2.16941	946.667
2.16921	938.222
2.16901	948.222
2.16881	948.222
2.16862	945.556
2.16842	950.222
2.16822	947.778
2.16802	948.667
2.16782	938.667
2.16763	958.667
2.16743	939.778
2.16723	951.111
2.16703	949.778
2.16683	952.889
2.16664	953.556
2.16644	941.111
2.16624	957.556
2.16604	942
2.16585	952.444
2.16565	965.333
2.16545	958.667
2.16525	947.333
2.16506	958.222
2.16486	959.333
2.16466	966.667
2.16446	955.111
2.16427	966.222
2.16407	962.667
2.16387	970.444
2.16367	982.889
2.16348	962.444
2.16328	955.333
2.16308	966
2.16289	966
2.16269	961.556
2.16249	979.556
2.1623	969.778
2.1621	973.333
2.1619	985.556
2.1617	978.667
2.16151	981.778
2.16131	978.445
2.16111	988.889
2.16092	977.778
2.16072	989.333
2.16052	978.889
2.16033	973.111
2.16013	981.333
2.15994	988.667
2.15974	1005.11
2.15954	992.889
2.15935	979.556
2.15915	989.111
2.15895	1008.67
2.15876	1004.44
2.15856	982.222
2.15837	1004.22
2.15817	999.111
2.15797	990.444
2.15778	983.111
2.15758	1003.56
2.15738	995.555
2.15719	1006.89
2.15699	1005.33
2.1568	1000.22
2.1566	1002
2.15641	1004
2.15621	1017.11
2.15601	1011.11
2.15582	1001.78
2.15562	1012.67
2.15543	1002
2.15523	1000.89
2.15504	1023.33
2.15484	1012
2.15465	1000.89
2.15445	1019.11
2.15425	1016
2.15406	1020.44
2.15386	1018.22
2.15367	1020
2.15347	1019.78
2.15328	1015.56
2.15308	1020.22
2.15289	1011.33
2.15269	1032
2.1525	1024.22
2.1523	1022.44
2.15211	1034.67
2.15191	1035.11
2.15172	1039.11
2.15152	1032.89
2.15133	1022.44
2.15113	1026.22
2.15094	1047.33
2.15074	1037.33
2.15055	1036
2.15035	1041.78
2.15016	1029.11
2.14997	1043.56
2.14977	1036.67
2.14958	1039.56
2.14938	1042.44
2.14919	1052
2.14899	1039.11
2.1488	1035.33
2.1486	1047.33
2.14841	1060
2.14822	1045.11
2.14802	1040.67
2.14783	1058.89
2.14763	1060
2.14744	1056.89
2.14725	1053.78
2.14705	1053.78
2.14686	1055.33
2.14666	1062.22
2.14647	1056.67
2.14628	1050.67
2.14608	1063.11
2.14589	1061.78
2.14569	1056.67
2.1455	1059.56
2.14531	1058.22
2.14511	1052.44
2.14492	1053.78
2.14473	1072.89
2.14453	1068.89
2.14434	1059.78
2.14415	1066.67
2.14395	1069.78
2.14376	1050.89
2.14357	1071.33
2.14337	1076.67
2.14318	1075.78
2.14299	1081.56
2.14279	1079.56
2.1426	1089.11
2.14241	1077.33
2.14221	1064.89
2.14202	1078.22
2.14183	1076.44
2.14163	1081.56
2.14144	1092.67
2.14125	1096.89
2.14106	1096.44
2.14086	1091.11
2.14067	1088.89
2.14048	1107.78
2.14028	1087.78
2.14009	1092.22
2.1399	1105.11
2.13971	1112.22
2.13951	1086.67
2.13932	1084.22
2.13913	1108.89
2.13894	1096.67
2.13874	1104.67
2.13855	1110.22
2.13836	1095.33
2.13817	1109.78
2.13797	1105.33
2.13778	1108.89
2.13759	1110
2.1374	1100.44
2.13721	1114.44
2.13701	1116.44
2.13682	1112.67
2.13663	1114.22
2.13644	1125.56
2.13625	1104.44
2.13605	1114
2.13586	1129.33
2.13567	1127.33
2.13548	1106.67
2.13529	1120.67
2.1351	1118.44
2.1349	1101.11
2.13471	1120.67
2.13452	1119.33
2.13433	1119.56
2.13414	1137.56
2.13395	1129.78
2.13375	1110
2.13356	1126.67
2.13337	1116.22
2.13318	1120.44
2.13299	1135.78
2.1328	1126.22
2.13261	1136.89
2.13241	1140
2.13222	1137.11
2.13203	1140
2.13184	1152.67
2.13165	1128.22
2.13146	1143.56
2.13127	1144.44
2.13108	1130.44
2.13089	1135.56
2.1307	1133.78
2.1305	1148.22
2.13031	1147.56
2.13012	1143.78
2.12993	1153.56
2.12974	1143.11
2.12955	1149.78
2.12936	1150.22
2.12917	1153.78
2.12898	1154.22
2.12879	1155.56
2.1286	1157.33
2.12841	1150.44
2.12822	1163.11
2.12803	1148.44
2.12784	1160.44
2.12765	1164.89
2.12746	1167.56
2.12727	1176
2.12708	1159.33
2.12689	1179.56
2.12669	1166.67
2.1265	1172.67
2.12631	1170.22
2.12612	1176
2.12593	1162.67
2.12574	1163.56
2.12555	1175.78
2.12537	1193.11
2.12518	1170.22
2.12499	1162.44
2.1248	1170.89
2.12461	1182.89
2.12442	1184.22
2.12423	1180.89
2.12404	1188.67
2.12385	1195.78
2.12366	1176.22
2.12347	1191.78
2.12328	1177.11
2.12309	1177.11
2.1229	1190.22
2.12271	1185.33
2.12252	1166.67
2.12233	1189.33
2.12214	1180.44
2.12195	1186.89
2.12176	1188.22
2.12157	1198
2.12139	1192.44
2.1212	1184
2.12101	1194.67
2.12082	1207.33
2.12063	1197.11
2.12044	1208.22
2.12025	1209.33
2.12006	1209.56
2.11987	1205.11
2.11968	1193.56
2.1195	1216.44
2.11931	1202.67
2.11912	1217.56
2.11893	1202.67
2.11874	1220.67
2.11855	1221.33
2.11836	1222.22
2.11818	1208.67
2.11799	1222
2.1178	1222.89
2.11761	1215.33
2.11742	1218.89
2.11723	1232.67
2.11705	1215.78
2.11686	1231.11
2.11667	1221.78
2.11648	1229.33
2.11629	1240.22
2.1161	1226.89
2.11592	1213.33
2.11573	1241.11
2.11554	1231.78
2.11535	1230.44
2.11516	1232.22
2.11498	1245.56
2.11479	1235.78
2.1146	1228.22
2.11441	1240.89
2.11422	1234.89
2.11404	1248.89
2.11385	1239.78
2.11366	1258.67
2.11347	1248.89
2.11329	1255.56
2.1131	1246.44
2.11291	1242.44
2.11272	1243.33
2.11254	1255.11
2.11235	1253.56
2.11216	1271.33
2.11197	1270.22
2.11179	1250
2.1116	1246.67
2.11141	1252
2.11122	1259.33
2.11104	1270.44
2.11085	1280.44
2.11066	1273.11
2.11048	1268
2.11029	1275.33
2.1101	1262
2.10992	1267.33
2.10973	1266.89
2.10954	1273.11
2.10935	1264.89
2.10917	1266.44
2.10898	1284
2.10879	1260.22
2.10861	1258.22
2.10842	1277.56
2.10823	1264.44
2.10805	1292.67
2.10786	1268.44
2.10767	1290.22
2.10749	1271.56
2.1073	1280.67
2.10711	1267.11
2.10693	1288.22
2.10674	1292
2.10656	1295.11
2.10637	1299.02
2.10618	1281.95
2.106	1287.4
2.10581	1293.26
2.10562	1300.15
2.10544	1290.43
2.10525	1288.34
2.10507	1277.01
2.10488	1284.94
2.10469	1276.96
2.10451	1279.11
2.10432	1275.65
2.10414	1282.15
2.10395	1281.33
2.10376	1282.57
2.10358	1271.39
2.10339	1288.03
2.10321	1267.88
2.10302	1267.89
2.10284	1281.37
2.10265	1283
2.10246	1267.44
2.10228	1281.49
2.10209	1263.87
2.10191	1281.46
2.10172	1268.16
2.10154	1277.56
2.10135	1275.15
2.10117	1271.42
2.10098	1291.21
2.1008	1281.18
2.10061	1270.38
2.10043	1268.09
2.10024	1277.18
2.10005	1268.24
2.09987	1275.05
2.09968	1260.38
2.0995	1281.15
2.09931	1274.84
2.09913	1260.25
2.09894	1264.82
2.09876	1265.03
2.09858	1273.06
2.09839	1263.5
2.09821	1268.99
2.09802	1265.69
2.09784	1258.07
2.09765	1261.75
2.09747	1269.59
2.09728	1266.53
2.0971	1268.89
2.09691	1268.11
2.09673	1255.89
2.09654	1265.52
2.09636	1273.41
2.09617	1263.41
2.09599	1257.15
2.09581	1253.49
2.09562	1260.35
2.09544	1249.35
2.09525	1262.59
2.09507	1263.96
2.09489	1262.6
2.0947	1252.88
2.09452	1250.55
2.09433	1257.1
2.09415	1258.12
2.09396	1254.4
2.09378	1255.52
2.0936	1252.96
2.09341	1242.57
2.09323	1255.9
2.09305	1238.81
2.09286	1255.53
2.09268	1242.15
2.09249	1252
2.09231	1253.24
2.09213	1254.59
2.09194	1231.22
2.09176	1244.02
2.09158	1236.52
2.09139	1248.79
2.09121	1254.86
2.09103	1246.4
2.09084	1231.07
2.09066	1240.03
2.09048	1242.45
2.09029	1228.39
2.09011	1233.7
2.08993	1235.11
2.08974	1243.13
2.08956	1228.91
2.08938	1242.32
2.08919	1240.65
2.08901	1231.39
2.08883	1225.54
2.08864	1214.17
2.08846	1231.69
2.08828	1229.72
2.08809	1219.3
2.08791	1228.22
2.08773	1237.7
2.08771	1238.22
2.08753	1223.33
2.08734	1219.56
2.08716	1234.67
2.08697	1235.56
2.08679	1228
2.08661	1244.89
2.08642	1228.67
2.08624	1227.78
2.08606	1226.89
2.08587	1232.22
2.08569	1240.44
2.08551	1241.56
2.08532	1245.33
2.08514	1230.44
2.08496	1245.56
2.08478	1234.89
2.08459	1238
2.08441	1244
2.08423	1258.44
2.08404	1251.33
2.08386	1247.11
2.08368	1234.44
2.08349	1252.44
2.08331	1244.22
2.08313	1248
2.08295	1241.78
2.08276	1232
2.08258	1252.44
2.0824	1244.22
2.08222	1247.33
2.08203	1247.56
2.08185	1253.11
2.08167	1241.56
2.08148	1244.67
2.0813	1258.22
2.08112	1260.22
2.08094	1243.78
2.08075	1241.33
2.08057	1255.33
2.08039	1258
2.08021	1258.22
2.08003	1257.33
2.07984	1260.67
2.07966	1264.67
2.07948	1238
2.0793	1262.22
2.07912	1239.11
2.07893	1254.22
2.07875	1251.78
2.07857	1246.89
2.07839	1271.33
2.07821	1254.89
2.07802	1255.33
2.07784	1247.33
2.07766	1249.78
2.07748	1242.22
2.0773	1256.89
2.07711	1260.22
2.07693	1277.11
2.07675	1270.67
2.07657	1257.56
2.07639	1275.11
2.07621	1268.67
2.07603	1263.33
2.07584	1263.78
2.07566	1268
2.07548	1267.78
2.0753	1268.67
2.07512	1276
2.07494	1276.22
2.07476	1265.56
2.07457	1260.22
2.07439	1287.56
2.07421	1263.78
2.07403	1266.44
2.07385	1276.67
2.07367	1269.56
2.07349	1270.22
2.07331	1270.22
2.07313	1277.78
2.07294	1288.22
2.07276	1284.89
2.07258	1268.44
2.0724	1273.78
2.07222	1274.67
2.07204	1292.22
2.07186	1279.78
2.07168	1270.22
2.0715	1297.11
2.07132	1286.67
2.07114	1277.33
2.07096	1284.89
2.07078	1280
2.0706	1275.33
2.07041	1284.67
2.07023	1278.22
2.07005	1285.33
2.06987	1292
2.06969	1286.67
2.06951	1295.11
2.06933	1289.78
2.06915	1288.44
2.06897	1289.33
2.06879	1285.11
2.06861	1302
2.06843	1299.56
2.06825	1292
2.06807	1283.56
2.06789	1296.67
2.06771	1285.11
2.06753	1307.11
2.06735	1299.56
2.06717	1292
2.06699	1295.11
2.06681	1297.56
2.06663	1287.33
2.06645	1290.67
2.06627	1289.56
2.06609	1297.11
2.06591	1290.67
2.06573	1293.78
2.06555	1296
2.06537	1290.22
2.06519	1302.44
2.06502	1280.22
2.06484	1312
2.06466	1302.22
2.06448	1305.78
2.0643	1312.67
2.06412	1292.89
2.06394	1320
2.06376	1314.44
2.06358	1295.78
2.0634	1301.33
2.06322	1308.89
2.06304	1301.11
2.06286	1314.89
2.06268	1308.89
2.06251	1299.11
2.06233	1309.56
2.06215	1302
2.06197	1313.56
2.06179	1316.22
2.06161	1315.11
2.06143	1299.56
2.06125	1317.78
2.06107	1309.78
2.0609	1313.11
2.06072	1308.22
2.06054	1311.33
2.06036	1304.67
2.06018	1302.67
2.06	1306.22
2.05982	1316.44
2.05965	1303.56
2.05947	1308.22
2.05929	1309.11
2.05911	1292.44
2.05893	1325.33
2.05875	1319.56
2.05858	1309.33
2.0584	1304.22
2.05822	1333.56
2.05804	1316.22
2.05786	1317.33
2.05768	1311.78
2.05751	1324
2.05733	1329.11
2.05715	1296.22
2.05697	1331.11
2.05679	1339.33
2.05662	1314.89
2.05644	1315.56
2.05626	1303.11
2.05608	1316
2.0559	1342.89
2.05573	1316.44
2.05555	1311.11
2.05537	1325.78
2.05519	1320.44
2.05502	1323.78
2.05484	1336
2.05466	1320.22
2.05448	1322.67
2.05431	1331.78
2.05413	1327.78
2.05395	1328
2.05377	1327.56
2.0536	1316.44
2.05342	1328.89
2.05324	1324.44
2.05306	1319.11
2.05289	1328
2.05271	1304.22
2.05253	1301.33
2.05235	1302.44
2.05218	1308.67
2.052	1316.67
2.05182	1301.33
2.05165	1314.67
2.05147	1316
2.05129	1308.67
2.05111	1317.78
2.05094	1320.67
2.05076	1295.33
2.05058	1299.56
2.05041	1307.78
2.05023	1294.44
2.05005	1311.11
2.04988	1297.56
2.0497	1307.78
2.04952	1308.89
2.04935	1302.67
2.04917	1299.78
2.04899	1307.78
2.04882	1312
2.04864	1295.11
2.04846	1311.33
2.04829	1298.22
2.04811	1298.67
2.04793	1295.33
2.04776	1317.56
2.04758	1304.44
2.04741	1316.67
2.04723	1304.22
2.04705	1318
2.04688	1305.78
2.0467	1312
2.04652	1307.56
2.04635	1301.56
2.04617	1307.78
2.046	1298.22
2.04582	1316.67
2.04564	1292.22
2.04547	1316.22
2.04529	1302.67
2.04512	1302.22
2.04494	1299.56
2.04476	1312.22
2.04459	1283.33
2.04441	1310
2.04424	1315.78
2.04406	1288.22
2.04389	1312.67
2.04371	1304.89
2.04354	1310
2.04336	1303.56
2.04318	1301.11
2.04301	1317.56
2.04283	1312.67
2.04266	1301.33
2.04248	1300.44
2.04231	1302.22
2.04213	1292
2.04196	1303.33
2.04178	1305.11
2.04161	1297.33
2.04143	1312
2.04126	1290.22
2.04108	1305.56
2.0409	1299.33
2.04073	1306.22
2.04055	1310
2.04038	1317.33
2.0402	1306.22
2.04003	1310
2.03985	1298.67
2.03968	1312.67
2.03951	1307.78
2.03933	1314.22
2.03916	1310.67
2.03898	1308.67
2.03881	1302
2.03863	1307.11
2.03846	1302.67
2.03828	1304.44
2.03811	1308.89
2.03793	1303.78
2.03776	1318.44
2.03758	1306.22
2.03741	1311.78
2.03723	1334.22
2.03706	1316.89
2.03689	1297.56
2.03671	1296.44
2.03654	1306.67
2.03636	1292.22
2.03619	1317.11
2.03601	1315.78
2.03584	1301.11
2.03567	1311.56
2.03549	1321.78
2.03532	1320
2.03514	1307.11
2.03497	1318.89
2.0348	1327.11
2.03462	1302
2.03445	1304.89
2.03427	1313.11
2.0341	1325.11
2.03393	1305.56
2.03375	1322.67
2.03358	1319.33
2.0334	1324.67
2.03323	1314.89
2.03306	1292
2.03288	1308.22
2.03271	1326.89
2.03254	1321.11
2.03236	1321.33
2.03219	1322.89
2.03202	1320
2.03184	1326
2.03167	1331.33
2.0315	1326.89
2.03132	1310.22
2.03115	1320.89
2.03098	1318
2.0308	1323.11
2.03063	1315.33
2.03046	1327.33
2.03028	1328
2.03011	1325.33
2.02994	1329.33
2.02976	1328.22
2.02959	1324.89
2.02942	1332.44
2.02924	1326.22
2.02907	1309.78
2.0289	1325.33
2.02872	1330.67
2.02855	1315.56
2.02838	1331.11
2.02821	1313.56
2.02803	1330
2.02786	1324.22
2.02769	1335.56
2.02751	1327.33
2.02734	1332.67
2.02717	1316.44
2.027	1327.78
2.02682	1334.44
2.02665	1339.56
2.02648	1331.33
2.02631	1319.33
2.02613	1317.11
2.02596	1330.22
2.02579	1326.89
2.02562	1332.22
2.02544	1342.44
2.02527	1325.11
2.0251	1347.33
2.02493	1361.56
2.02476	1342.89
2.02458	1336.89
2.02441	1354
2.02424	1335.78
2.02407	1335.33
2.0239	1334.22
2.02372	1347.56
2.02355	1347.56
2.02338	1347.56
2.02321	1343.33
2.02304	1321.11
2.02286	1343.78
2.02269	1345.78
2.02252	1343.11
2.02235	1350.67
2.02218	1339.56
2.022	1358.89
2.02183	1338.44
2.02166	1332.67
2.02149	1336.67
2.02132	1343.78
2.02115	1342.67
2.02097	1341.78
2.0208	1361.11
2.02063	1341.78
2.02046	1357.78
2.02029	1346
2.02012	1357.33
2.01995	1350
2.01978	1353.78
2.0196	1366.44
2.01943	1356.44
2.01926	1330.89
2.01909	1361.33
2.01892	1367.56
2.01875	1359.11
2.01858	1348.89
2.01841	1339.78
2.01823	1358
2.01806	1356.67
2.01789	1359.78
2.01772	1372
2.01755	1356.44
2.01738	1368
2.01721	1368.67
2.01704	1354.89
2.01687	1373.11
2.0167	1376.89
2.01653	1372
2.01636	1364
2.01618	1366.22
2.01601	1358
2.01584	1372.89
2.01567	1384.67
2.0155	1376.44
2.01533	1375.11
2.01516	1360.67
2.01499	1376.89
2.01482	1372.22
2.01465	1387.11
2.01448	1373.78
2.01431	1383.33
2.01414	1374.44
2.01397	1368.67
2.0138	1375.11
2.01363	1376.44
2.01346	1382.67
2.01329	1379.33
2.01312	1362
2.01295	1385.11
2.01278	1392.67
2.01261	1365.33
2.01244	1380
2.01227	1366.44
2.0121	1397.78
2.01193	1382.44
2.01176	1388.44
2.01159	1390.44
2.01142	1392.22
2.01125	1394.44
2.01108	1388.44
2.01091	1405.33
2.01074	1384.89
2.01057	1402
2.0104	1389.11
2.01023	1379.78
2.01006	1388.44
2.00989	1409.33
2.00972	1392
2.00955	1404.89
2.00938	1400.67
2.00921	1386.67
2.00904	1402
2.00887	1396
2.0087	1385.56
2.00854	1402
2.00837	1397.78
2.0082	1393.56
2.00803	1412.67
2.00786	1406.67
2.00769	1394
2.00752	1407.11
2.00735	1395.56
2.00718	1406.67
2.00701	1419.56
2.00684	1414.44
2.00668	1390
2.00651	1403.78
2.00634	1422.44
2.00617	1417.33
2.006	1428.67
2.00583	1416.44
2.00566	1425.33
2.00549	1417.33
2.00532	1409.56
2.00516	1420.44
2.00499	1419.11
2.00482	1420.44
2.00465	1427.11
2.00448	1417.11
2.00431	1419.56
2.00414	1416.89
2.00398	1424.44
2.00381	1423.11
2.00364	1412.67
2.00347	1424.89
2.0033	1407.78
2.00313	1414
2.00297	1419.56
2.0028	1433.33
2.00263	1434.44
2.00246	1422.44
2.00229	1425.56
2.00212	1422.22
2.00196	1416.67
2.00179	1432.89
2.00162	1426.22
2.00145	1430.67
2.00128	1421.56
2.00112	1426
2.00095	1438.22
2.00078	1426
2.00061	1432.89
2.00044	1421.56
2.00028	1439.11
2.00011	1443.33
1.99994	1426.89
1.99977	1414.67
1.9996	1435.56
1.99944	1430.22
1.99927	1434
1.9991	1434
1.99893	1426.67
1.99877	1429.78
1.9986	1420.89
1.99843	1440.67
1.99826	1426.89
1.9981	1449.33
1.99793	1456.22
1.99776	1437.33
1.99759	1448.44
1.99743	1454.44
1.99726	1454.44
1.99709	1454.44
1.99693	1449.11
1.99676	1439.56
1.99659	1445.33
1.99642	1442.22
1.99626	1446.22
1.99609	1448
1.99592	1442.22
1.99576	1461.33
1.99559	1440.89
1.99542	1455.56
1.99525	1448.44
1.99509	1445.33
1.99492	1450.44
1.99475	1467.56
1.99459	1439.33
1.99442	1436.89
1.99425	1450.67
1.99409	1452.89
1.99392	1462.44
1.99375	1461.11
1.99359	1464.89
1.99342	1456.67
1.99325	1446.67
1.99309	1451.11
1.99292	1465.78
1.99275	1445.56
1.99259	1460.67
1.99242	1464.44
1.99225	1477.33
1.99209	1446.67
1.99192	1452.44
1.99176	1461.11
1.99159	1459.56
1.99142	1474.44
1.99126	1446.22
1.99109	1466
1.99092	1429.11
1.99076	1458.89
1.99059	1447.78
1.99043	1449.33
1.99026	1464.44
1.99009	1457.56
1.98993	1446.89
1.98976	1464.67
1.9896	1455.11
1.98943	1458
1.98926	1439.78
1.9891	1476.67
1.98893	1464.22
1.98877	1473.33
1.9886	1452.44
1.98844	1453.33
1.98827	1465.33
1.9881	1453.56
1.98794	1468.67
1.98777	1469.78
1.98761	1463.33
1.98744	1469.11
1.98728	1463.78
1.98711	1490.22
1.98694	1478
1.98678	1477.11
1.98661	1454.44
1.98645	1474.89
1.98628	1475.11
1.98612	1458
1.98595	1451.11
1.98579	1466.67
1.98562	1462.22
1.98546	1462.22
1.98529	1451.56
1.98513	1464.44
1.98496	1465.33
1.9848	1470.22
1.98463	1472.22
1.98447	1482.44
1.9843	1469.56
1.98414	1471.33
1.98397	1467.78
1.98381	1470
1.98364	1473.33
1.98348	1473.56
1.98331	1462.89
1.98315	1477.78
1.98298	1456.22
1.98282	1481.33
1.98265	1472
1.98249	1472.44
1.98232	1480.89
1.98216	1481.11
1.98199	1472.44
1.98183	1476.44
1.98166	1481.33
1.9815	1464.67
1.98134	1476.89
1.98117	1474.22
1.98101	1476
1.98084	1451.33
1.98068	1478.44
1.98051	1470
1.98035	1466.22
1.98019	1483.78
1.98002	1481
1.97986	1471.11
1.97969	1468.67
1.97953	1486.22
1.97936	1487.56
1.9792	1469.78
1.97904	1488
1.97887	1473.33
1.97871	1477.56
1.97854	1485.78
1.97838	1476.22
1.97822	1483.33
1.97805	1480.22
1.97789	1485.11
1.97772	1478
1.97756	1477.56
1.9774	1483.11
1.97723	1487.11
1.97707	1494
1.97691	1501.78
1.97674	1488.22
1.97658	1462.67
1.97641	1492.44
1.97625	1476.89
1.97609	1465.78
1.97592	1470.89
1.97576	1479.33
1.9756	1475.11
1.97543	1487.33
1.97527	1482
1.97511	1503.78
1.97494	1487.33
1.97478	1493.33
1.97462	1469.11
1.97445	1495.33
1.97429	1496.44
1.97413	1463.56
1.97396	1477.56
1.9738	1501.78
1.97364	1501.78
1.97347	1472.67
1.97331	1493.33
1.97315	1492.44
1.97299	1479.56
1.97282	1482.22
1.97266	1476.22
1.9725	1508.44
1.97233	1482.67
1.97217	1476
1.97201	1492.44
1.97184	1483.78
1.97168	1495.78
1.97152	1500.67
1.97136	1473.33
1.97119	1486
1.97103	1496.67
1.97087	1478
1.97071	1495.78
1.97054	1483.11
1.97038	1495.78
1.97022	1487.33
1.97006	1484.44
1.96989	1490.89
1.96973	1482.44
1.96957	1494.67
1.96941	1485.56
1.96924	1478.22
1.96908	1503.56
1.96892	1494.67
1.96876	1504.89
1.96859	1493.11
1.96843	1500
1.96827	1495.78
1.96811	1512.44
1.96795	1488.89
1.96778	1494.44
1.96762	1510.89
1.96746	1493.56
1.9673	1505.78
1.96714	1490.44
1.96697	1508
1.96681	1499.11
1.96665	1491.33
1.96649	1476.22
1.96633	1498
1.96616	1498.89
1.966	1478.89
1.96584	1488.89
1.96568	1496.22
1.96552	1488.22
1.96536	1481.33
1.96519	1492.44
1.96503	1499.56
1.96487	1493.11
1.96471	1492.44
1.96455	1484.22
1.96439	1498.89
1.96422	1488.89
1.96406	1481.33
1.9639	1508.44
1.96374	1493.56
1.96358	1486.22
1.96342	1484.22
1.96326	1500
1.96309	1494.89
1.96293	1488.44
1.96277	1493.78
1.96261	1488.44
1.96245	1505.78
1.96229	1496.22
1.96213	1496.22
1.96197	1478.44
1.96181	1487.56
1.96164	1491.56
1.96148	1484.89
1.96132	1488.44
1.96116	1492
1.961	1485.33
1.96084	1493.78
1.96068	1511.11
1.96052	1484.22
1.96036	1498.44
1.9602	1487.56
1.96004	1490.89
1.95987	1510.67
1.95971	1499.33
1.95955	1493.56
1.95939	1511.11
1.95923	1517.56
1.95907	1485.56
1.95891	1490.22
1.95875	1500
1.95859	1503.33
1.95843	1506.67
1.95827	1459.33
1.95811	1492.22
1.95795	1492.89
1.95779	1485.78
1.95763	1484.67
1.95747	1495.56
1.95731	1493.33
1.95715	1507.33
1.95699	1484.44
1.95683	1494.67
1.95667	1498.22
1.95651	1483.78
1.95635	1482.67
1.95619	1489.33
1.95603	1493.78
1.95587	1469.11
1.95571	1480.44
1.95555	1477.33
1.95539	1483.11
1.95523	1493.56
1.95507	1483.56
1.95491	1484
1.95475	1481.78
1.95459	1471.78
1.95443	1491.11
1.95427	1481.33
1.95411	1476.89
1.95395	1490.89
1.95379	1482
1.95363	1474
1.95347	1474
1.95331	1492.67
1.95315	1477.11
1.95299	1490.44
1.95283	1461.56
1.95267	1481.11
1.95251	1479.78
1.95235	1461.78
1.95219	1492.22
1.95203	1483.78
1.95187	1483.11
1.95172	1496.22
1.95156	1504.89
1.9514	1478.44
1.95124	1477.11
1.95108	1489.78
1.95092	1470.44
1.95076	1490.89
1.9506	1472.44
1.95044	1472.44
1.95028	1474.44
1.95012	1482.89
1.94996	1492.67
1.94981	1487.11
1.94965	1492
1.94949	1481.78
1.94933	1482.89
1.94917	1487.33
1.94901	1481.11
1.94885	1458
1.94869	1467.56
1.94853	1484.44
1.94838	1496.67
1.94822	1481.11
1.94806	1490
1.9479	1474.67
1.94774	1475.56
1.94758	1465.95
1.94742	1481.57
1.94727	1492.86
1.94711	1495.86
1.94695	1481.48
1.94679	1470.82
1.94663	1467.25
1.94647	1488.49
1.94632	1474.59
1.94616	1458.19
1.946	1474.54
1.94584	1471.82
1.94568	1486.28
1.94552	1480.29
1.94537	1478.39
1.94521	1473.6
1.94505	1468.14
1.94489	1481.03
1.94473	1467.89
1.94458	1480.05
1.94442	1471.02
1.94426	1487.45
1.9441	1462.31
1.94394	1481.51
1.94379	1464.42
1.94363	1463.31
1.94347	1483.74
1.94331	1481.71
1.94315	1475.22
1.943	1475.42
1.94284	1469.59
1.94268	1470.44
1.94252	1484.18
1.94237	1475.22
1.94221	1461.91
1.94205	1472.87
1.94189	1475.27
1.94173	1469.07
1.94158	1469.23
1.94142	1455.42
1.94126	1464.08
1.9411	1477.37
1.94095	1475.93
1.94079	1465.93
1.94063	1468.98
1.94048	1472.4
1.94032	1471.02
1.94016	1467
1.94	1469.41
1.93985	1462.39
1.93969	1469.01
1.93953	1472.97
1.93937	1463.71
1.93922	1470.96
1.93906	1471.87
1.9389	1469.48
1.93875	1477.96
1.93859	1474.72
1.93843	1469.3
1.93828	1464.32
1.93812	1467.81
1.93796	1454.13
1.9378	1457.1
1.93765	1466.39
1.93749	1465.81
1.93733	1472.75
1.93718	1465.38
1.93702	1460.18
1.93686	1464.46
1.93671	1462.78
1.93655	1467.95
1.93639	1467.31
1.93624	1461.23
1.93608	1463.4
1.93592	1465.17
1.93577	1453.77
1.93561	1458.43
1.93545	1470.06
1.9353	1458.34
1.93514	1448.18
1.93499	1449.49
1.93483	1455.59
1.93467	1461.67
1.93452	1461.72
1.93436	1458.29
1.9342	1465.11
1.93405	1459.54
1.93389	1454.22
1.93374	1457.04
1.93358	1458.24
1.93342	1450.12
1.93327	1448.2
1.93311	1457.98
1.93295	1460.83
1.9328	1461.53
1.93264	1459.84
1.93249	1451.1
1.93233	1445.59
1.93217	1444.43
1.93202	1455.29
1.93186	1456.27
1.93171	1454.29
1.93161	1454.44
1.93145	1456.22
1.9313	1454.67
1.93114	1446.67
1.93098	1448.44
1.93083	1441.78
1.93067	1435.33
1.93052	1446.44
1.93036	1450.44
1.9302	1442.22
1.93005	1447.78
1.92989	1460.44
1.92973	1442.67
1.92958	1452.89
1.92942	1441.56
1.92927	1450.22
1.92911	1453.33
1.92895	1458
1.9288	1455.33
1.92864	1446.89
1.92848	1425.78
1.92833	1452.89
1.92817	1452.67
1.92802	1446.67
1.92786	1447.78
1.92771	1448.44
1.92755	1418
1.92739	1443.11
1.92724	1435.33
1.92708	1427.33
1.92693	1457.78
1.92677	1446
1.92661	1448.22
1.92646	1428.89
1.9263	1439.78
1.92615	1422.89
1.92599	1463.33
1.92584	1434
1.92568	1429.56
1.92553	1432
1.92537	1426.22
1.92521	1426.89
1.92506	1424.22
1.9249	1440
1.92475	1442
1.92459	1433.11
1.92444	1437.11
1.92428	1437.11
1.92413	1434.22
1.92397	1422.67
1.92382	1432.67
1.92366	1434.89
1.92351	1444.44
1.92335	1431.78
1.9232	1422.44
1.92304	1429.78
1.92289	1429.78
1.92273	1407.56
1.92258	1428
1.92242	1421.33
1.92227	1413.33
1.92211	1424.89
1.92196	1418.89
1.9218	1419.11
1.92165	1414.67
1.92149	1409.33
1.92134	1427.56
1.92118	1413.11
1.92103	1417.56
1.92087	1403.33
1.92072	1412.67
1.92056	1408.89
1.92041	1412
1.92025	1415.56
1.9201	1425.56
1.91994	1411.33
1.91979	1429.78
1.91964	1403.56
1.91948	1411.11
1.91933	1420.67
1.91917	1430.67
1.91902	1406.22
1.91886	1401.11
1.91871	1409.56
1.91855	1414.44
1.9184	1395.33
1.91825	1402.67
1.91809	1414
1.91794	1406
1.91778	1406.67
1.91763	1402.89
1.91747	1414.67
1.91732	1393.78
1.91717	1405.11
1.91701	1419.33
1.91686	1392.22
1.9167	1395.11
1.91655	1405.78
1.9164	1407.78
1.91624	1405.56
1.91609	1393.56
1.91593	1400.67
1.91578	1403.33
1.91563	1393.33
1.91547	1398.89
1.91532	1401.11
1.91517	1383.11
1.91501	1398.67
1.91486	1402.67
1.9147	1399.11
1.91455	1399.78
1.9144	1401.11
1.91424	1410.67
1.91409	1403.11
1.91394	1381.56
1.91378	1385.11
1.91363	1385.78
1.91348	1377.56
1.91332	1388
1.91317	1378.89
1.91302	1378.89
1.91286	1392.89
1.91271	1376.44
1.91256	1394.89
1.9124	1391.56
1.91225	1376.22
1.9121	1373.56
1.91194	1394.89
1.91179	1388
1.91164	1376.22
1.91148	1377.78
1.91133	1382.22
1.91118	1363.56
1.91102	1358.89
1.91087	1381.33
1.91072	1378.67
1.91056	1383.33
1.91041	1377.33
1.91026	1391.33
1.91011	1361.11
1.90995	1366.89
1.9098	1372.89
1.90965	1362
1.90949	1368.67
1.90934	1365.78
1.90919	1366
1.90904	1369.33
1.90888	1362.67
1.90873	1360.67
1.90858	1361.78
1.90843	1362
1.90827	1364.44
1.90812	1369.56
1.90797	1363.56
1.90782	1366.67
1.90766	1345.56
1.90751	1354.44
1.90736	1353.56
1.90721	1367.56
1.90705	1360.67
1.9069	1365.11
1.90675	1354.44
1.9066	1364.89
1.90644	1355.78
1.90629	1344.44
1.90614	1352.22
1.90599	1337.78
1.90584	1336.67
1.90568	1346.67
1.90553	1349.11
1.90538	1336
1.90523	1348
1.90507	1352.22
1.90492	1350.44
1.90477	1349.33
1.90462	1336.44
1.90447	1338.67
1.90432	1344.44
1.90416	1336
1.90401	1350.89
1.90386	1335.56
1.90371	1336.44
1.90356	1349.78
1.9034	1351.56
1.90325	1321.33
1.9031	1332.67
1.90295	1332.44
1.9028	1347.11
1.90265	1320.89
1.90249	1335.56
1.90234	1334.67
1.90219	1337.11
1.90204	1344
1.90189	1334.44
1.90174	1338
1.90158	1308.89
1.90143	1328.67
1.90128	1338.22
1.90113	1326.89
1.90098	1324.44
1.90083	1320.67
1.90068	1325.56
1.90053	1327.11
1.90037	1317.56
1.90022	1322.89
1.90007	1318.44
1.89992	1307.11
1.89977	1303.56
1.89962	1314.89
1.89947	1316
1.89932	1321.78
1.89917	1314.89
1.89901	1321.33
1.89886	1316.67
1.89871	1318.44
1.89856	1320.89
1.89841	1314.67
1.89826	1311.56
1.89811	1312
1.89796	1297.33
1.89781	1298.44
1.89766	1316.67
1.89751	1303.11
1.89735	1313.78
1.8972	1310.44
1.89705	1297.11
1.8969	1294.67
1.89675	1287.56
1.8966	1312.67
1.89645	1299.11
1.8963	1287.11
1.89615	1278.89
1.896	1300.44
1.89585	1284.44
1.8957	1301.11
1.89555	1303.11
1.8954	1291.11
1.89525	1292
1.8951	1297.33
1.89495	1279.56
1.8948	1282.44
1.89465	1295.78
1.89449	1292.22
1.89434	1299.33
1.89419	1270.89
1.89404	1268.67
1.89389	1291.78
1.89374	1261.56
1.89359	1280.22
1.89344	1255.11
1.89329	1286
1.89314	1271.56
1.89299	1273.78
1.89284	1279.78
1.89269	1278.89
1.89254	1264.89
1.89239	1258.22
1.89224	1262.67
1.89209	1269.56
1.89194	1279.78
1.89179	1261.78
1.89164	1260.67
1.89149	1256.22
1.89135	1260.22
1.8912	1266.44
1.89105	1260.44
1.8909	1270.22
1.89075	1263.11
1.8906	1268.89
1.89045	1250.44
1.8903	1250
1.89015	1256.22
1.89	1253.78
1.88985	1255.56
1.8897	1238.44
1.88955	1258.44
1.8894	1244.22
1.88925	1255.78
1.8891	1260
1.88895	1245.78
1.8888	1241.33
1.88865	1255.33
1.88851	1248.67
1.88836	1247.78
1.88821	1240.44
1.88806	1240.67
1.88791	1247.78
1.88776	1240.67
1.88761	1246.67
1.88746	1254.89
1.88731	1238.44
1.88716	1235.78
1.88701	1234.89
1.88686	1246.44
1.88672	1239.78
1.88657	1241.33
1.88642	1246.44
1.88627	1233.33
1.88612	1214.44
1.88597	1242.67
1.88582	1236.67
1.88567	1229.78
1.88552	1228.89
1.88538	1219.11
1.88523	1234
1.88508	1218.89
1.88493	1226
1.88478	1220.44
1.88463	1225.78
1.88448	1214.67
1.88434	1222.67
1.88419	1202.22
1.88404	1209.33
1.88389	1221.56
1.88374	1221.56
1.88359	1210
1.88345	1203.56
1.8833	1202.89
1.88315	1203.56
1.883	1206.89
1.88285	1202
1.8827	1200.44
1.88256	1193.56
1.88241	1202.67
1.88226	1197.11
1.88211	1203.33
1.88196	1198.22
1.88181	1202.22
1.88167	1210
1.88152	1205.56
1.88137	1199.78
1.88122	1210.67
1.88107	1185.78
1.88093	1190.67
1.88078	1210.22
1.88063	1202.89
1.88048	1194.89
1.88033	1190.89
1.88019	1168.89
1.88004	1200.89
1.87989	1195.11
1.87974	1182
1.87959	1184.89
1.87945	1180.89
1.8793	1179.33
1.87915	1185.78
1.879	1168.22
1.87886	1195.78
1.87871	1182
1.87856	1169.33
1.87841	1188.22
1.87827	1175.78
1.87812	1182
1.87797	1185.33
1.87782	1158.22
1.87768	1189.11
1.87753	1162
1.87738	1161.56
1.87723	1170.67
1.87709	1162.67
1.87694	1188.44
1.87679	1163.11
1.87664	1156.89
1.8765	1172
1.87635	1164.22
1.8762	1163.56
1.87606	1174.22
1.87591	1141.33
1.87576	1173.56
1.87561	1163.33
1.87547	1168.67
1.87532	1173.33
1.87517	1158.89
1.87503	1148.22
1.87488	1144.22
1.87473	1157.11
1.87459	1146
1.87444	1144.89
1.87429	1165.56
1.87414	1154.22
1.874	1167.78
1.87385	1164.44
1.8737	1153.11
1.87356	1143.56
1.87341	1133.78
1.87326	1143.56
1.87312	1126.44
1.87297	1145.56
1.87282	1141.78
1.87268	1133.78
1.87253	1136.67
1.87238	1138.22
1.87224	1129.56
1.87209	1135.78
1.87194	1119.33
1.8718	1119.11
1.87165	1134.44
1.87151	1130.67
1.87136	1136.44
1.87121	1124.44
1.87107	1121.56
1.87092	1135.78
1.87077	1124.89
1.87063	1129.11
1.87048	1114.89
1.87034	1129.33
1.87019	1129.33
1.87004	1130.22
1.8699	1112.67
1.86975	1123.33
1.8696	1119.56
1.86946	1117.33
1.86931	1110.67
1.86917	1114.89
1.86902	1112.89
1.86887	1114.22
1.86873	1109.78
1.86858	1109.56
1.86844	1092
1.86829	1108.89
1.86814	1103.11
1.868	1094.44
1.86785	1106.89
1.86771	1107.11
1.86756	1112.44
1.86742	1107.78
1.86727	1094.44
1.86712	1100.44
1.86698	1102
1.86683	1098.89
1.86669	1091.33
1.86654	1090.89
1.8664	1093.11
1.86625	1092.89
1.86611	1105.11
1.86596	1092.67
1.86581	1092.22
1.86567	1099.78
1.86552	1078
1.86538	1089.78
1.86523	1086.89
1.86509	1090
1.86494	1094.22
1.8648	1072.67
1.86465	1070.44
1.86451	1077.11
1.86436	1074.44
1.86422	1092.44
1.86407	1072.67
1.86393	1067.56
1.86378	1067.11
1.86364	1086.22
1.86349	1071.11
1.86334	1083.11
1.8632	1082
1.86305	1062.44
1.86291	1071.11
1.86276	1070.89
1.86262	1083.78
1.86247	1074.67
1.86233	1065.56
1.86219	1059.33
1.86204	1056.67
1.8619	1076.44
1.86175	1060.67
1.86161	1057.33
1.86146	1065.78
1.86132	1063.33
1.86117	1060
1.86103	1056.22
1.86088	1061.33
1.86074	1042.44
1.86059	1061.56
1.86045	1065.33
1.8603	1066.44
1.86016	1066.89
1.86002	1054
1.85987	1053.78
1.85973	1054.44
1.85958	1066.89
1.85944	1058
1.85929	1050
1.85915	1054.44
1.859	1046.44
1.85886	1039.78
1.85872	1040.89
1.85857	1048.44
1.85843	1036.44
1.85828	1046.89
1.85814	1045.33
1.85799	1029.78
1.85785	1043.56
1.85771	1032
1.85756	1052.67
1.85742	1032.89
1.85727	1044
1.85713	1040
1.85699	1049.78
1.85684	1028.67
1.8567	1053.11
1.85655	1044
1.85641	1038.44
1.85627	1030.67
1.85612	1036.22
1.85598	1047.33
1.85583	1032.22
1.85569	1036.67
1.85555	1021.78
1.8554	1017.56
1.85526	1020
1.85512	1018
1.85497	1023.33
1.85483	1019.33
1.85468	1011.56
1.85454	1012
1.8544	1023.56
1.85425	1018.44
1.85411	1001.56
1.85397	1016.89
1.85382	1014.89
1.85368	1001.78
1.85354	1020.67
1.85339	1024
1.85325	1018.67
1.85311	1003.11
1.85296	1006.67
1.85282	1012.89
1.85268	997.556
1.85253	1016
1.85239	1002.89
1.85225	992.222
1.8521	996.667
1.85196	1000.89
1.85182	999.778
1.85167	1007.33
1.85153	1014.22
1.85139	991.556
1.85125	1004.67
1.8511	1000.89
1.85096	994.222
1.85082	992.222
1.85067	1004.67
1.85053	1004.89
1.85039	991.111
1.85024	985.111
1.8501	983.556
1.84996	985.111
1.84982	989.111
1.84967	976.889
1.84953	990.444
1.84939	984
1.84924	987.333
1.8491	975.778
1.84896	984.444
1.84882	963.778
1.84867	993.111
1.84853	988.889
1.84839	972.222
1.84825	986.444
1.8481	983.778
1.84796	978.222
1.84782	971.778
1.84768	981.333
1.84753	979.556
1.84739	964
1.84725	981.333
1.84711	967.556
1.84696	975.778
1.84682	962.889
1.84668	951.333
1.84654	964.667
1.8464	968.667
1.84625	972.667
1.84611	952.222
1.84597	978.667
1.84583	964.222
1.84568	985.111
1.84554	950.444
1.8454	962.667
1.84526	957.333
1.84512	942.222
1.84497	960
1.84483	946.222
1.84469	953.333
1.84455	936.444
1.84441	955.333
1.84426	951.333
1.84412	943.111
1.84398	960.444
1.84384	946.889
1.8437	940.222
1.84355	945.778
1.84341	943.333
1.84327	945.111
1.84313	940.222
1.84299	936.667
1.84285	940.667
1.8427	951.333
1.84256	950.667
1.84242	937.333
1.84228	933.556
1.84214	946.667
1.842	925.778
1.84186	919.778
1.84171	930.444
1.84157	927.556
1.84143	929.333
1.84129	934.889
1.84115	939.333
1.84101	919.556
1.84087	923.111
1.84072	929.556
1.84058	929.111
1.84044	933.333
1.8403	928
1.84016	928.889
1.84002	936.889
1.83988	941.333
1.83974	928.667
1.83959	918.444
1.83945	924.444
1.83931	921.111
1.83917	921.556
1.83903	920.222
1.83889	922
1.83875	918.889
1.83861	914.667
1.83847	922.444
1.83832	906.667
1.83818	900.889
1.83804	924.222
1.8379	900.889
1.83776	912
1.83762	906.444
1.83748	906.667
1.83734	906.445
1.8372	896
1.83706	902.889
1.83692	903.111
1.83678	898.667
1.83664	912.889
1.83649	902.444
1.83635	898.444
1.83621	894.444
1.83607	880.444
1.83593	871.556
1.83579	898.444
1.83565	894.889
1.83551	901.778
1.83537	894.222
1.83523	899.778
1.83509	887.778
1.83495	891.556
1.83481	893.778
1.83467	897.111
1.83453	894.889
1.83439	893.333
1.83425	872.444
1.83411	887.778
1.83397	891.111
1.83383	877.778
1.83369	896.667
1.83355	881.555
1.83341	878.444
1.83327	881.333
1.83313	866.667
1.83299	876
1.83285	878.444
1.83271	881.333
1.83257	882.889
1.83243	864.889
1.83229	872.667
1.83215	880.222
1.83201	877.333
1.83187	877.333
1.83173	877.778
1.83159	868.222
1.83145	862.667
1.83131	858.445
1.83117	867.778
1.83103	864.444
1.83089	861.111
1.83075	873.333
1.83061	856.889
1.83047	865.778
1.83033	858.667
1.83019	853.333
1.83005	850.222
1.82991	848.667
1.82977	858.889
1.82963	858.889
1.82949	864.889
1.82935	841.333
1.82921	860.222
1.82907	864.889
1.82893	856.667
1.8288	851.111
1.82866	852.222
1.82852	852.222
1.82838	854.667
1.82824	846.667
1.8281	844.667
1.82796	846.667
1.82782	849.111
1.82768	821.778
1.82754	844.222
1.8274	847.333
1.82726	842.444
1.82712	829.556
1.82699	837.111
1.82685	846.445
1.82671	831.556
1.82657	841.333
1.82643	827.333
1.82629	827.556
1.82615	834.889
1.82601	837.556
1.82587	825.111
1.82573	834.889
1.8256	828.222
1.82546	821.111
1.82532	826.222
1.82518	830.889
1.82504	826.445
1.8249	810
1.82476	823.778
1.82462	827.556
1.82449	817.333
1.82435	823.778
1.82421	820.222
1.82407	830
1.82393	833.556
1.82379	824.222
1.82365	820.444
1.82352	818.222
1.82338	812.889
1.82324	798.444
1.8231	812.444
1.82296	812
1.82282	799.333
1.82269	820.889
1.82255	810.222
1.82241	813.556
1.82227	801.556
1.82213	812.889
1.82199	812.667
1.82186	805.111
1.82172	804.444
1.82158	804.444
1.82144	808.889
1.8213	810.222
1.82116	804.222
1.82103	792.889
1.82089	784.444
1.82075	791.778
1.82061	790.667
1.82047	792.667
1.82034	778.222
1.8202	788.222
1.82006	803.111
1.81992	797.333
1.81978	799.333
1.81965	787.556
1.81951	780.889
1.81937	776.889
1.81923	790
1.8191	796.444
1.81896	796
1.81882	794.667
1.81868	790.889
1.81854	769.111
1.81841	787.778
1.81827	793.556
1.81813	770.222
1.81799	781.556
1.81786	775.556
1.81772	766
1.81758	776.222
1.81744	775.333
1.81731	788.444
1.81717	771.111
1.81703	757.556
1.81689	782.222
1.81676	780
1.81662	780.222
1.81648	767.333
1.81634	758.667
1.81621	764.667
1.81607	761.778
1.81593	774.444
1.8158	779.333
1.81566	756.889
1.81552	764.889
1.81538	773.111
1.81525	763.333
1.81511	761.111
1.81497	756
1.81484	755.778
1.8147	759.556
1.81456	766.889
1.81442	766.222
1.81429	746.444
1.81415	754.222
1.81401	760.667
1.81388	762.667
1.81374	762.445
1.8136	754.889
1.81347	754.667
1.81333	751.333
1.81319	749.333
1.81305	765.556
1.81292	762.889
1.81278	758
1.81264	744.889
1.81251	759.111
1.81237	746.222
1.81223	750
1.8121	740.889
1.81196	732.889
1.81182	738
1.81169	732.555
1.81155	728.391
1.81141	740.031
1.81128	739.348
1.81114	722.648
1.81101	729.51
1.81087	738.613
1.81073	745.522
1.8106	727.443
1.81046	728.689
1.81032	723.595
1.81019	732.018
1.81005	737.381
1.80991	732.889
1.80978	734.033
1.80964	729.299
1.80951	724.099
1.80937	736.135
1.80923	721.293
1.8091	723.365
1.80896	722.887
1.80882	724.901
1.80869	724.891
1.80855	721.172
1.80842	721.589
1.80828	727.841
1.80814	718.636
1.80801	719.949
1.80787	714.399
1.80774	719.75
1.8076	728.842
1.80746	723.641
1.80733	714.264
1.80719	718.572
1.80706	721.042
1.80692	715.605
1.80679	709.364
1.80665	701.887
1.80651	714.987
1.80638	711.173
1.80624	715.811
1.80611	718.08
1.80597	707.94
1.80584	708.414
1.8057	702.943
1.80556	704.888
1.80543	699.62
1.80529	703.507
1.80516	701.715
1.80502	704.909
1.80489	700.854
1.80475	696.088
1.80462	695.242
1.80448	693.292
1.80435	698.961
1.80421	698.244
1.80407	696.177
1.80394	705.411
1.8038	700.674
1.80367	691.164
1.80353	691.305
1.8034	695.719
1.80326	688.279
1.80313	691.583
1.80299	693.654
1.80286	692.989
1.80272	688.704
1.80259	692.993
1.80245	689.773
1.80232	688.823
1.80218	693.544
1.80205	688.434
1.80191	678.114
1.80178	681.272
1.80164	678.931
1.80151	677.396
1.80137	681.813
1.80124	680.065
1.8011	677.572
1.80097	674.254
1.80083	672.285
1.8007	679.562
1.80056	682.186
1.80043	681.127
1.80029	681.287
1.80016	674.024
1.80002	672.955
1.79989	670.579
1.79975	671.309
1.79962	671.275
1.79949	670.499
1.79935	667.969
1.79922	664.07
1.79908	661.498
1.79895	664.282
1.79881	666.037
1.79868	663.94
1.79854	656.383
1.79841	657.102
1.79827	664.8
1.79814	664.147
1.79801	659.444
1.79787	658.267
1.79779	661.333
1.79766	655.111
1.79752	661.111
1.79739	663.778
1.79725	658.889
1.79712	669.111
1.79698	666.445
1.79685	655.333
1.79672	658.889
1.79658	648.444
1.79645	661.778
1.79631	644.889
1.79618	660.889
1.79604	650.889
1.79591	634.889
1.79577	642.444
1.79564	649.111
1.7955	645.333
1.79537	640.667
1.79523	651.111
1.7951	639.778
1.79496	640.667
1.79483	635.333
1.7947	648.889
1.79456	641.556
1.79443	636
1.79429	639.333
1.79416	649.778
1.79402	636
1.79389	645.556
1.79375	626.667
1.79362	640
1.79349	642
1.79335	636
1.79322	629.556
1.79308	634.222
1.79295	636
1.79281	632
1.79268	626.667
1.79255	628.667
1.79241	623.333
1.79228	630.222
1.79214	616.222
1.79201	627.555
1.79188	621.778
1.79174	617.111
1.79161	623.778
1.79147	612
1.79134	628.667
1.79121	622.667
1.79107	616.444
1.79094	622.222
1.7908	620.222
1.79067	614
1.79054	612
1.7904	614.222
1.79027	624.889
1.79013	606.889
1.79	613.111
1.78987	604.889
1.78973	600.444
1.7896	610.889
1.78947	601.556
1.78933	609.111
1.7892	612.444
1.78906	611.333
1.78893	600.444
1.7888	615.556
1.78866	599.556
1.78853	589.333
1.7884	605.556
1.78826	602.667
1.78813	604.222
1.788	606.222
1.78786	604.444
1.78773	590.667
1.7876	588.889
1.78746	599.778
1.78733	601.556
1.7872	591.556
1.78706	596
1.78693	605.333
1.7868	592
1.78666	592.667
1.78653	585.778
1.7864	598.222
1.78626	591.111
1.78613	591.333
1.786	583.111
1.78586	580
1.78573	598.444
1.7856	592.222
1.78546	585.111
1.78533	590.222
1.7852	588.889
1.78507	586.444
1.78493	582.889
1.7848	581.333
1.78467	585.778
1.78453	579.555
1.7844	577.333
1.78427	589.556
1.78414	588
1.784	579.111
1.78387	577.555
1.78374	581.556
1.7836	583.111
1.78347	582.667
1.78334	570.889
1.78321	572.445
1.78307	578.889
1.78294	578
1.78281	571.333
1.78268	570.222
1.78254	568.889
1.78241	574.222
1.78228	570.445
1.78215	570
1.78201	576
1.78188	566
1.78175	570.889
1.78162	581.333
1.78148	566.889
1.78135	559.111
1.78122	565.556
1.78109	552.222
1.78095	568.444
1.78082	571.333
1.78069	563.333
1.78056	562.889
1.78042	572.667
1.78029	560
1.78016	554.667
1.78003	557.778
1.7799	568.889
1.77976	540
1.77963	564.444
1.7795	546.667
1.77937	546.444
1.77924	570.667
1.7791	553.333
1.77897	566.667
1.77884	542.889
1.77871	547.333
1.77858	542.667
1.77844	544
1.77831	556.444
1.77818	559.778
1.77805	544.444
1.77792	543.111
1.77778	552.444
1.77765	543.333
1.77752	538.889
1.77739	548.889
1.77726	543.556
1.77712	546.889
1.77699	538
1.77686	539.778
1.77673	548.889
1.7766	535.111
1.77647	540
1.77634	532.444
1.7762	539.556
1.77607	541.333
1.77594	536.889
1.77581	541.778
1.77568	536.889
1.77555	528.222
1.77541	533.556
1.77528	536
1.77515	533.556
1.77502	536.222
1.77489	529.111
1.77476	544
1.77463	524.444
1.77449	528.667
1.77436	526.222
1.77423	522.889
1.7741	524.444
1.77397	525.778
1.77384	526.445
1.77371	524.444
1.77358	529.778
1.77344	522.889
1.77331	536.889
1.77318	514.222
1.77305	520.889
1.77292	518.889
1.77279	523.333
1.77266	528.444
1.77253	521.111
1.7724	515.111
1.77227	521.556
1.77213	508.889
1.772	520.667
1.77187	515.333
1.77174	504.444
1.77161	512.444
1.77148	505.111
1.77135	504.444
1.77122	500.889
1.77109	510
1.77096	512.889
1.77083	509.333
1.7707	504.889
1.77056	512.889
1.77043	508.889
1.7703	499.778
1.77017	511.778
1.77004	504.667
1.76991	501.556
1.76978	495.556
1.76965	504
1.76952	513.333
1.76939	502.444
1.76926	505.778
1.76913	504.222
1.769	503.111
1.76887	500.444
1.76874	517.111
1.76861	494.222
1.76848	494.222
1.76835	493.333
1.76822	493.333
1.76809	498.444
1.76796	501.333
1.76782	496.667
1.76769	492.889
1.76756	496.667
1.76743	496.667
1.7673	495.111
1.76717	493.778
1.76704	488.222
1.76691	489.333
1.76678	498.889
1.76665	487.111
1.76652	492.889
1.76639	495.556
1.76626	493.556
1.76613	490.667
1.766	489.333
1.76587	497.778
1.76574	478.889
1.76561	479.778
1.76548	484.222
1.76535	491.333
1.76522	489.778
1.76509	468.667
1.76496	480.444
1.76483	488
1.7647	483.556
1.76457	485.333
1.76445	474.667
1.76432	476.889
1.76419	474.889
1.76406	470.444
1.76393	482.889
1.7638	475.556
1.76367	489.111
1.76354	471.333
1.76341	478
1.76328	477.778
1.76315	472.889
1.76302	472.444
1.76289	472.667
1.76276	474.889
1.76263	472.889
1.7625	460.889
1.76237	458.444
1.76224	477.111
1.76211	468.889
1.76198	473.111
1.76185	474.444
1.76173	467.111
1.7616	468.444
1.76147	468
1.76134	468.667
1.76121	462.222
1.76108	459.111
1.76095	460.667
1.76082	459.333
1.76069	470.667
1.76056	469.778
1.76043	462.667
1.7603	459.333
1.76018	469.778
1.76005	465.333
1.75992	456
1.75979	470.667
1.75966	458.444
1.75953	457.556
1.7594	451.111
1.75927	467.333
1.75914	450.889
1.75901	447.111
1.75889	452.444
1.75876	450
1.75863	456.667
1.7585	448.889
1.75837	442.889
1.75824	460.444
1.75811	449.556
1.75798	445.333
1.75786	441.111
1.75773	450
1.7576	443.333
1.75747	450.889
1.75734	440.667
1.75721	454.222
1.75708	440
1.75696	443.111
1.75683	446.667
1.7567	457.556
1.75657	436.889
1.75644	442.444
1.75631	439.111
1.75618	445.778
1.75606	435.333
1.75593	446
1.7558	435.111
1.75567	440
1.75554	442.444
1.75541	441.556
1.75529	456.222
1.75516	449.778
1.75503	440.222
1.7549	433.111
1.75477	432.444
1.75464	443.778
1.75452	437.111
1.75439	438.222
1.75426	432.667
1.75413	434.667
1.754	428
1.75388	429.556
1.75375	433.333
1.75362	435.556
1.75349	431.111
1.75336	432.667
1.75324	430.222
1.75311	430
1.75298	426.889
1.75285	421.556
1.75272	425.556
1.7526	425.556
1.75247	422.222
1.75234	430.667
1.75221	431.333
1.75208	412.667
1.75196	427.778
1.75183	426.444
1.7517	421.778
1.75157	418.667
1.75145	420.444
1.75132	415.111
1.75119	430.889
1.75106	424.444
1.75094	413.778
1.75081	427.778
1.75068	416
1.75055	411.333
1.75043	421.778
1.7503	417.778
1.75017	414.222
1.75004	416.889
1.74992	411.778
1.74979	411.778
1.74966	413.333
1.74953	420
1.74941	412
1.74928	418.667
1.74915	412.222
1.74902	405.333
1.7489	409.778
1.74877	413.333
1.74864	403.111
1.74851	410
1.74839	410
1.74826	411.556
1.74813	416
1.74801	408.222
1.74788	413.333
1.74775	398.222
1.74762	410
1.7475	392.222
1.74737	400.667
1.74724	402.889
1.74712	408
1.74699	400.889
1.74686	404.444
1.74674	400.667
1.74661	399.556
1.74648	406.444
1.74635	397.333
1.74623	409.778
1.7461	396
1.74597	398.222
1.74585	394.444
1.74572	406.444
1.74559	395.778
1.74547	390.889
1.74534	391.778
1.74521	382.667
1.74509	393.778
1.74496	399.111
1.74483	387.778
1.74471	388.667
1.74458	389.778
1.74445	394.889
1.74433	383.333
1.7442	392.889
1.74407	393.111
1.74395	385.778
1.74382	391.778
1.74369	388.444
1.74357	386
1.74344	380.444
1.74332	389.556
1.74319	378.889
1.74306	393.333
1.74294	384.667
1.74281	388.667
1.74268	395.556
1.74256	378.444
1.74243	384
1.7423	381.556
1.74218	380.889
1.74205	375.778
1.74193	377.111
1.7418	376.222
1.74167	375.778
1.74155	387.333
1.74142	387.111
1.74129	382.222
1.74117	372.889
1.74104	375.111
1.74092	374.444
1.74079	378.444
1.74066	375.111
1.74054	374.444
1.74041	369.333
1.74029	377.778
1.74016	378.444
1.74003	378.444
1.73991	371.778
1.73978	372.222
1.73966	367.778
1.73953	370.667
1.73941	372
1.73928	366.444
1.73915	369.556
1.73903	370
1.7389	374.667
1.73878	368
1.73865	366
1.73853	369.556
1.7384	369.778
1.73827	368.667
1.73815	363.333
1.73802	367.556
1.7379	359.111
1.73777	365.778
1.73765	360.222
1.73752	367.556
1.7374	364
1.73727	365.556
1.73714	361.556
1.73702	361.556
1.73689	358.889
1.73677	361.556
1.73664	364.667
1.73652	366.222
1.73639	351.556
1.73627	357.111
1.73614	352.222
1.73602	360
1.73589	357.333
1.73577	362.222
1.73564	358.667
1.73551	357.778
1.73539	355.111
1.73526	349.111
1.73514	354.889
1.73501	353.333
1.73489	354.222
1.73476	348.667
1.73464	356.222
1.73451	357.333
1.73439	343.556
1.73426	350.222
1.73414	349.333
1.73401	354.444
1.73389	352.444
1.73376	346.444
1.73364	333.556
1.73351	343.778
1.73339	352.444
1.73326	348
1.73314	343.111
1.73301	348.667
1.73289	351.111
1.73276	336.889
1.73264	348
1.73252	337.556
1.73239	348.444
1.73227	340
1.73214	335.333
1.73202	337.333
1.73189	341.778
1.73177	346.889
1.73164	347.111
1.73152	333.333
1.73139	344.222
1.73127	337.778
1.73114	331.111
1.73102	341.333
1.7309	338
1.73077	341.778
1.73065	340.222
1.73052	345.333
1.7304	340.889
1.73027	335.111
1.73015	335.778
1.73002	329.556
1.7299	336
1.72978	333.778
1.72965	332
1.72953	334.667
1.7294	337.778
1.72928	339.333
1.72915	339.778
1.72903	329.556
1.72891	338.222
1.72878	328
1.72866	326.889
1.72853	323.778
1.72841	329.333
1.72829	336.667
1.72816	323.778
1.72804	327.778
1.72791	328
1.72779	320.889
1.72767	319.778
1.72754	333.556
1.72742	322
1.72729	329.111
1.72717	326
1.72705	320.667
1.72692	321.333
1.7268	322.222
1.72667	318
1.72655	322.889
1.72643	322.444
1.7263	329.556
1.72618	321.778
1.72605	323.111
1.72593	321.778
1.72581	328.444
1.72568	324.222
1.72556	312
1.72544	318.444
1.72531	321.333
1.72519	311.778
1.72507	320.222
1.72494	312.222
1.72482	320.222
1.72469	319.778
1.72457	311.778
1.72445	309.778
1.72432	323.111
1.7242	318.889
1.72408	322.222
1.72395	315.556
1.72383	321.778
1.72371	312.222
1.72358	318.444
1.72346	312
1.72334	316
1.72321	317.111
1.72309	309.111
1.72297	314.444
1.72284	308.444
1.72272	311.111
1.7226	305.778
1.72247	306
1.72235	313.333
1.72223	313.333
1.72211	306.889
1.72198	306.889
1.72186	315.778
1.72174	302.222
1.72161	302.444
1.72149	308.444
1.72137	306.667
1.72124	305.333
1.72112	310.444
1.721	301.111
1.72087	313.556
1.72075	307.778
1.72063	306.889
1.72051	299.111
1.72038	305.778
1.72026	301.556
1.72014	301.111
1.72001	301.333
1.71989	305.333
1.71977	298
1.71965	309.556
1.71952	298.222
1.7194	299.556
1.71928	296.444
1.71916	302.889
1.71903	300.889
1.71891	299.556
1.71879	295.333
1.71866	306.444
1.71854	288.222
1.71842	296.667
1.7183	301.556
1.71817	300.444
1.71805	298
1.71793	292.667
1.71781	302
1.71768	294.444
1.71756	300.444
1.71744	293.778
1.71732	301.333
1.71719	290.667
1.71707	294
1.71695	299.556
1.71683	293.111
1.71671	294.222
1.71658	296.222
1.71646	291.556
1.71634	283.556
1.71622	290.889
1.71609	290.667
1.71597	294.889
1.71585	288.889
1.71573	295.333
1.71561	292.444
1.71548	288.667
1.71536	291.333
1.71524	294
1.71512	292.889
1.715	292
1.71487	290
1.71475	290
1.71463	283.333
1.71451	284
1.71439	291.556
1.71426	282
1.71414	284.222
1.71402	285.778
1.7139	290
1.71378	288.444
1.71365	292.667
1.71353	285.111
1.71341	279.778
1.71329	291.333
1.71317	283.111
1.71305	286
1.71292	283.333
1.7128	282.222
1.71268	285.556
1.71256	281.778
1.71244	279.333
1.71231	286.222
1.71219	278.222
1.71207	284.667
1.71195	280.889
1.71183	282.222
1.71171	283.111
1.71159	276.222
1.71146	280.889
1.71134	278.667
1.71122	272.889
1.7111	285.556
1.71098	277.556
1.71086	276
1.71074	285.111
1.71061	270.667
1.71049	277.778
1.71037	274.889
1.71025	275.333
1.71013	274.444
1.71001	271.111
1.70989	272.889
1.70976	267.556
1.70964	269.556
1.70952	270.444
1.7094	276.667
1.70928	277.556
1.70916	268
1.70904	271.556
1.70892	270.444
1.7088	277.333
1.70867	271.111
1.70855	265.778
1.70843	269.778
1.70831	274
1.70819	269.778
1.70807	272.444
1.70795	270
1.70783	273.333
1.70771	272.222
1.70759	269.333
1.70746	267.333
1.70734	259.111
1.70722	271.778
1.7071	262.222
1.70698	270.667
1.70686	273.111
1.70674	267.111
1.70662	265.111
1.7065	263.111
1.70638	266.444
1.70626	260.222
1.70614	259.333
1.70602	262.889
1.70589	262
1.70577	257.778
1.70565	264.444
1.70553	260.889
1.70541	258.222
1.70529	263.556
1.70517	257.111
1.70505	261.556
1.70493	256.222
1.70481	265.778
1.70469	266.667
1.70457	259.111
1.70445	265.333
1.70433	260.667
1.70421	257.333
1.70409	263.333
1.70397	258
1.70385	260.667
1.70373	258.222
1.70361	262
1.70349	253.111
1.70337	266.222
1.70325	266.667
1.70312	272
1.703	256.222
1.70288	252.222
1.70276	255.556
1.70264	253.778
1.70252	254.444
1.7024	253.778
1.70228	252.667
1.70216	255.556
1.70204	252.444
1.70192	257.111
1.7018	259.556
1.70168	258.222
1.70156	257.778
1.70144	257.111
1.70132	255.556
1.7012	254.444
1.70108	254
1.70096	256.444
1.70084	251.333
1.70072	247.556
1.7006	252.222
1.70048	247.556
1.70036	242
1.70025	253.333
1.70013	257.111
1.70001	253.111
1.69989	251.556
1.69977	247.556
1.69965	252.667
1.69953	245.778
1.69941	244.222
1.69929	249.778
1.69917	246.889
1.69905	245.778
1.69893	244.667
1.69881	246.444
1.69869	249.333
1.69857	250.667
1.69845	253.778
1.69833	251.333
1.69821	249.333
1.69809	246.889
1.69797	248.889
1.69785	243.556
1.69773	246.667
1.69761	247.111
1.69749	237.778
1.69738	238.444
1.69726	242.444
1.69714	238.444
1.69702	248.222
1.6969	248.889
1.69678	246
1.69666	236.222
1.69654	245.111
1.69642	246
1.6963	241.778
1.69618	244.222
1.69606	240.222
1.69594	242
1.69583	239.778
1.69571	235.778
1.69559	239.111
1.69547	240
1.69535	235.778
1.69523	243.111
1.69511	244.444
1.69499	238
1.69487	244.889
1.69475	234.889
1.69464	239.111
1.69452	240.222
1.6944	237.333
1.69428	232.889
1.69416	236
1.69404	231.556
1.69392	236.61
1.6938	230.795
1.69368	235.982
1.69357	234.215
1.69345	234.06
1.69333	237.302
1.69321	236.623
1.69309	232.451
1.69297	233.001
1.69285	232.082
1.69274	231.39
1.69262	231.268
1.6925	229.149
1.69238	229.97
1.69226	238.269
1.69214	232.107
1.69202	224.513
1.69191	233.075
1.69179	223.856
1.69167	231.02
1.69155	228.156
1.69143	224.085
1.69131	224.185
1.69119	233.329
1.69108	228.613
1.69096	226.163
1.69084	224.978
1.69072	219.056
1.6906	225.662
1.69048	226.871
1.69037	228.593
1.69025	224.562
1.69013	221.187
1.69001	228.234
1.68989	223.132
1.68977	226.148
1.68966	221.599
1.68954	223.628
1.68942	226.173
1.6893	224.349
1.68918	216.913
1.68907	222.22
1.68895	220.762
1.68883	225.009
1.68871	223.796
1.68859	223.534
1.68848	218.417
1.68836	218.587
1.68824	219.947
1.68812	216.843
1.688	219.995
1.68789	221.818
1.68777	217.102
1.68765	221.091
1.68753	219.717
1.68741	219.667
1.6873	219.914
1.68718	212.846
1.68706	215.75
1.68694	219.458
1.68683	215.032
1.68671	223.36
1.68659	219.404
1.68647	220.746
1.68636	214.753
1.68624	220.432
1.68612	222.065
1.686	213.23
1.68588	218.485
1.68577	217.26
1.68565	216.127
1.68553	210.095
1.68541	215.209
1.6853	217.776
1.68518	212.383
1.68506	206.057
1.68494	209.226
1.68483	217.252
1.68471	218.35
1.68459	215.107
1.68447	211.201
1.68436	213.184
1.68424	212.135
1.68412	217.932
1.68401	218.166
1.68389	222.2
1.68377	210.106
1.68365	214.52
1.68354	216.032
1.68342	215.13
1.6833	215.861
1.68318	214.085
1.68307	212.443
1.68295	205.984
1.68283	213.867
1.68272	216.419
1.6826	212.554
1.68248	213.412
1.68236	214.222
1.68225	207.994
1.68213	212.123
1.68201	213.478
1.68199	213.333
1.68187	211.778
1.68175	210.667
1.68163	210.222
1.68152	210
1.6814	208
1.68128	207.778
1.68116	209.778
1.68105	210
1.68093	212.444
1.68081	209.556
1.68069	207.333
1.68058	215.333
1.68046	210.667
1.68034	210.889
1.68022	213.778
1.68011	208.222
1.67999	204.667
1.67987	210.667
1.67975	213.556
1.67964	207.333
1.67952	208.889
1.6794	209.556
1.67929	210.222
1.67917	208
1.67905	200.444
1.67893	209.556
1.67882	212.222
1.6787	206
1.67858	208.667
1.67847	215.556
1.67835	212.444
1.67823	210.889
1.67811	210.222
1.678	210.444
1.67788	213.778
1.67776	207.556
1.67765	205.778
1.67753	204.889
1.67741	211.778
1.6773	204.222
1.67718	208.444
1.67706	205.111
1.67694	210
1.67683	208.889
1.67671	209.556
1.67659	211.111
1.67648	209.556
1.67636	208.222
1.67624	205.556
1.67613	207.556
1.67601	210.444
1.67589	208.222
1.67578	206.222
1.67566	207.778
1.67554	210.889
1.67543	205.111
1.67531	205.111
1.67519	206.222
1.67508	212.667
1.67496	204
1.67484	206.444
1.67473	209.778
1.67461	204
1.67449	202.222
1.67438	202.889
1.67426	204.889
1.67415	207.556
1.67403	205.111
1.67391	201.333
1.6738	203.111
1.67368	201.778
1.67356	213.111
1.67345	201.111
1.67333	199.111
1.67321	188.444
1.6731	208.667
1.67298	207.556
1.67287	203.111
1.67275	198.222
1.67263	200
1.67252	200
1.6724	207.333
1.67228	196.667
1.67217	204.889
1.67205	194.889
1.67194	206.667
1.67182	204.667
1.6717	201.111
1.67159	199.111
1.67147	195.556
1.67136	198
1.67124	199.333
1.67112	193.778
1.67101	197.778
1.67089	196.444
1.67078	199.778
1.67066	199.556
1.67054	201.556
1.67043	198
1.67031	203.556
1.6702	205.556
1.67008	202.444
1.66996	202.667
1.66985	197.778
1.66973	197.556
1.66962	202.889
1.6695	197.778
1.66939	200.222
1.66927	197.556
1.66915	199.333
1.66904	206.222
1.66892	200.667
1.66881	200
1.66869	198
1.66858	196.667
1.66846	196
1.66834	197.111
1.66823	202.444
1.66811	199.778
1.668	204
1.66788	193.333
1.66777	191.778
1.66765	197.778
1.66754	200.222
1.66742	194.889
1.6673	202.444
1.66719	203.778
1.66707	199.556
1.66696	198.444
1.66684	195.556
1.66673	201.778
1.66661	193.778
1.6665	199.111
1.66638	199.111
1.66627	194.889
1.66615	196.222
1.66604	196.667
1.66592	200
1.66581	198.889
1.66569	202.667
1.66558	200.444
1.66546	195.111
1.66535	197.333
1.66523	195.556
1.66511	194.889
1.665	197.333
1.66488	195.778
1.66477	190.444
1.66465	194.889
1.66454	193.111
1.66442	195.333
1.66431	192.222
1.66419	193.333
1.66408	193.556
1.66396	195.111
1.66385	199.333
1.66373	192
1.66362	197.778
1.6635	194.222
1.66339	193.333
1.66328	194.444
1.66316	192.222
1.66305	197.333
1.66293	197.333
1.66282	197.556
1.6627	196.222
1.66259	193.111
1.66247	193.333
1.66236	185.778
1.66224	191.556
1.66213	197.556
1.66201	193.111
1.6619	189.556
1.66178	190.889
1.66167	191.111
1.66155	193.333
1.66144	190.889
1.66133	192.222
1.66121	190.667
1.6611	186.222
1.66098	185.778
1.66087	193.111
1.66075	194.444
1.66064	186.667
1.66052	186.222
1.66041	180.444
1.6603	186.444
1.66018	189.556
1.66007	187.333
1.65995	191.111
1.65984	191.111
1.65972	188.444
1.65961	190.222
1.6595	190.444
1.65938	186.889
1.65927	189.556
1.65915	185.111
1.65904	192.889
1.65892	186.444
1.65881	184.444
1.6587	188.444
1.65858	184.667
1.65847	188
1.65835	184
1.65824	189.111
1.65813	182.889
1.65801	184
1.6579	188.667
1.65778	191.778
1.65767	177.778
1.65756	194.222
1.65744	190.889
1.65733	192.222
1.65721	184.667
1.6571	181.556
1.65699	188.889
1.65687	187.778
1.65676	183.111
1.65664	181.333
1.65653	184.444
1.65642	184.222
1.6563	186.889
1.65619	188.222
1.65607	183.778
1.65596	182.667
1.65585	184.444
1.65573	183.556
1.65562	187.333
1.65551	186.667
1.65539	182.444
1.65528	186.667
1.65517	185.333
1.65505	185.111
1.65494	174.667
1.65482	183.333
1.65471	185.333
1.6546	184.667
1.65448	178.222
1.65437	186.222
1.65426	186.889
1.65414	178
1.65403	181.778
1.65392	178.667
1.6538	179.556
1.65369	177.333
1.65358	187.333
1.65346	178.667
1.65335	180.444
1.65324	177.556
1.65312	181.333
1.65301	181.111
1.6529	183.556
1.65278	189.778
1.65267	181.333
1.65256	181.333
1.65244	186.889
1.65233	176
1.65222	185.111
1.6521	180.444
1.65199	183.333
1.65188	180.667
1.65176	179.556
1.65165	185.333
1.65154	180.889
1.65142	180.667
1.65131	178.889
1.6512	177.111
1.65109	181.778
1.65097	174.667
1.65086	176.889
1.65075	180.889
1.65063	178.889
1.65052	179.556
1.65041	176.889
1.65029	177.556
1.65018	181.111
1.65007	175.778
1.64996	168.667
1.64984	172.667
1.64973	179.111
1.64962	179.556
1.6495	181.556
1.64939	184
1.64928	182
1.64917	177.556
1.64905	171.778
1.64894	182.444
1.64883	174
1.64872	170.444
1.6486	171.778
1.64849	177.778
1.64838	177.556
1.64826	170
1.64815	181.333
1.64804	180
1.64793	175.778
1.64781	174.222
1.6477	167.333
1.64759	175.556
1.64748	173.556
1.64736	177.556
1.64725	178.444
1.64714	171.556
1.64703	173.333
1.64691	174.222
1.6468	175.778
1.64669	171.333
1.64658	176.667
1.64647	177.778
1.64635	173.111
1.64624	174.667
1.64613	174.667
1.64602	171.556
1.6459	176
1.64579	174.222
1.64568	169.111
1.64557	167.333
1.64545	178
1.64534	176.222
1.64523	171.111
1.64512	171.778
1.64501	170.889
1.64489	171.333
1.64478	176.667
1.64467	171.333
1.64456	168.889
1.64445	170.444
1.64433	170.222
1.64422	172.444
1.64411	168.889
1.644	174.889
1.64389	167.778
1.64377	174.889
1.64366	170.444
1.64355	168.444
1.64344	168
1.64333	168.667
1.64321	170.889
1.6431	173.333
1.64299	176.222
1.64288	174.222
1.64277	172.444
1.64266	167.556
1.64254	171.778
1.64243	167.333
1.64232	166.222
1.64221	172.444
1.6421	169.111
1.64198	171.556
1.64187	171.111
1.64176	169.778
1.64165	167.778
1.64154	172.444
1.64143	167.778
1.64131	169.778
1.6412	169.556
1.64109	162
1.64098	167.556
1.64087	170
1.64076	167.778
1.64065	166
1.64053	169.111
1.64042	159.333
1.64031	161.333
1.6402	164.889
1.64009	168.444
1.63998	166.667
1.63987	166.667
1.63975	170.667
1.63964	163.556
1.63953	170.222
1.63942	169.111
1.63931	171.333
1.6392	166.889
1.63909	164.222
1.63898	167.778
1.63886	166.667
1.63875	166.667
1.63864	162
1.63853	165.333
1.63842	164.444
1.63831	167.333
1.6382	162
1.63809	161.778
1.63797	163.778
1.63786	168
1.63775	160.444
1.63764	164.667
1.63753	163.778
1.63742	168
1.63731	157.556
1.6372	167.778
1.63709	162
1.63698	159.778
1.63686	161.333
1.63675	161.778
1.63664	159.333
1.63653	168.667
1.63642	161.111
1.63631	162.222
1.6362	164.667
1.63609	160
1.63598	155.778
1.63587	162.667
1.63576	159.333
1.63565	155.778
1.63553	160
1.63542	162
1.63531	166.889
1.6352	154.889
1.63509	159.778
1.63498	167.111
1.63487	163.111
1.63476	160.444
1.63465	160.444
1.63454	154.222
1.63443	157.778
1.63432	164
1.63421	163.778
1.6341	161.778
1.63399	161.556
1.63388	159.556
1.63376	158.444
1.63365	160.667
1.63354	160.444
1.63343	159.778
1.63332	154.889
1.63321	164.889
1.6331	156
1.63299	157.556
1.63288	163.333
1.63277	164
1.63266	157.333
1.63255	156
1.63244	158.444
1.63233	152.667
1.63222	162
1.63211	157.333
1.632	158.222
1.63189	154.444
1.63178	157.778
1.63167	153.333
1.63156	159.111
1.63145	153.111
1.63134	153.556
1.63123	155.111
1.63112	158.667
1.63101	156.667
1.6309	149.111
1.63079	159.111
1.63068	148.222
1.63057	151.111
1.63046	156.444
1.63035	158.222
1.63024	153.778
1.63013	157.111
1.63002	154.444
1.62991	156.889
1.6298	151.333
1.62969	155.556
1.62958	156.222
1.62947	152.222
1.62936	156.667
1.62925	154.444
1.62914	150
1.62903	160.222
1.62892	159.778
1.62881	152.667
1.6287	145.778
1.62859	149.556
1.62848	154.444
1.62837	158.444
1.62826	157.778
1.62815	154
1.62804	153.556
1.62793	155.111
1.62782	151.778
1.62771	153.111
1.6276	147.778
1.62749	152.222
1.62738	150.222
1.62727	152.889
1.62716	154.222
1.62706	153.111
1.62695	152.889
1.62684	153.556
1.62673	151.556
1.62662	148.667
1.62651	154
1.6264	148.222
1.62629	148.667
1.62618	150.667
1.62607	148.889
1.62596	145.556
1.62585	147.556
1.62574	141.333
1.62563	154.222
1.62552	150.889
1.62541	144
1.62531	150.444
1.6252	153.778
1.62509	145.333
1.62498	148.222
1.62487	148.889
1.62476	152.889
1.62465	147.778
1.62454	146.667
1.62443	143.778
1.62432	145.333
1.62421	148.444
1.6241	144.444
1.624	143.556
1.62389	148.889
1.62378	147.111
1.62367	146
1.62356	145.111
1.62345	145.778
1.62334	147.778
1.62323	145.333
1.62312	147.778
1.62301	146
1.62291	144.889
1.6228	145.556
1.62269	146
1.62258	142.889
1.62247	150.444
1.62236	144.667
1.62225	144.444
1.62214	150.889
1.62204	145.556
1.62193	149.778
1.62182	143.333
1.62171	149.111
1.6216	152.667
1.62149	145.333
1.62138	145.778
1.62127	145.333
1.62117	142.889
1.62106	150.889
1.62095	144.889
1.62084	146.444
1.62073	142.889
1.62062	139.111
1.62051	146.444
1.62041	145.556
1.6203	144
1.62019	143.778
1.62008	139.556
1.61997	143.778
1.61986	145.556
1.61975	141.778
1.61965	144.667
1.61954	144
1.61943	143.333
1.61932	147.556
1.61921	144.222
1.6191	138.667
1.619	145.333
1.61889	140.444
1.61878	140.667
1.61867	142.667
1.61856	144.222
1.61845	140
1.61835	139.111
1.61824	144.667
1.61813	141.111
1.61802	141.778
1.61791	137.556
1.61781	136
1.6177	137.556
1.61759	140.444
1.61748	140.222
1.61737	138.889
1.61726	145.333
1.61716	136.667
1.61705	140.667
1.61694	142
1.61683	140
1.61672	144
1.61662	137.778
1.61651	136.444
1.6164	136
1.61629	144.889
1.61618	132
1.61608	141.333
1.61597	141.111
1.61586	138.667
1.61575	142
1.61565	140.222
1.61554	143.778
1.61543	139.778
1.61532	138.222
1.61521	133.556
1.61511	136.667
1.615	142.222
1.61489	136.667
1.61478	140.667
1.61468	143.778
1.61457	138.222
1.61446	138.222
1.61435	135.778
1.61424	133.556
1.61414	138
1.61403	134.667
1.61392	137.556
1.61381	135.556
1.61371	136
1.6136	136
1.61349	133.333
1.61338	140.222
1.61328	131.778
1.61317	136.444
1.61306	135.111
1.61295	135.556
1.61285	131.556
1.61274	135.333
1.61263	137.556
1.61252	134.889
1.61242	134
1.61231	134.667
1.6122	132.222
1.6121	136.667
1.61199	129.111
1.61188	128
1.61177	131.556
1.61167	136.667
1.61156	132.889
1.61145	134.444
1.61134	133.111
1.61124	137.333
1.61113	132.889
1.61102	132.667
1.61092	130.444
1.61081	135.778
1.6107	130.889
1.61059	131.556
1.61049	137.111
1.61038	133.778
1.61027	135.778
1.61017	132.667
1.61006	134.444
1.60995	128.889
1.60985	134
1.60974	133.778
1.60963	134.667
1.60952	136.444
1.60942	130.222
1.60931	132.444
1.6092	135.111
1.6091	128.222
1.60899	135.778
1.60888	128.222
1.60878	132.889
1.60867	131.556
1.60856	131.111
1.60846	134.667
1.60835	132.444
1.60824	130.667
1.60814	134.444
1.60803	129.778
1.60792	130.889
1.60781	130.222
1.60771	128.222
1.6076	129.778
1.60749	129.111
1.60739	131.333
1.60728	130.667
1.60717	132.667
1.60707	134.222
1.60696	130
1.60686	130
1.60675	125.111
1.60664	129.333
1.60654	122.222
1.60643	128
1.60632	131.333
1.60622	130.667
1.60611	128
1.606	128.889
1.6059	128.222
1.60579	125.333
1.60568	122.667
1.60558	131.111
1.60547	125.778
1.60536	129.111
1.60526	131.556
1.60515	125.778
1.60505	124.222
1.60494	127.333
1.60483	128.222
1.60473	128.667
1.60462	128.444
1.60451	128.444
1.60441	125.778
1.6043	126
1.6042	125.556
1.60409	131.556
1.60398	125.778
1.60388	124.667
1.60377	124.444
1.60367	124.667
1.60356	121.556
1.60345	125.111
1.60335	126.667
1.60324	126.444
1.60313	126.444
1.60303	121.556
1.60292	126
1.60282	126.667
1.60271	128.222
1.6026	123.333
1.6025	124.667
1.60239	121.111
1.60229	126
1.60218	121.778
1.60208	120.889
1.60197	123.556
1.60186	120.667
1.60176	127.333
1.60165	128.889
1.60155	118.444
1.60144	126.667
1.60133	119.778
1.60123	122.444
1.60112	125.333
1.60102	126.222
1.60091	123.333
1.60081	125.778
1.6007	122
1.60059	117.333
1.60049	125.556
1.60038	122.222
1.60028	120.444
1.60017	120.444
1.60007	119.333
1.59996	120.889
1.59986	122.444
1.59975	119.556
1.59964	123.778
1.59954	125.778
1.59943	122.444
1.59933	116.444
1.59922	120.889
1.59912	117.778
1.59901	116
1.59891	121.333
1.5988	120.889
1.5987	118
1.59859	120.222
1.59848	119.778
1.59838	119.778
1.59827	120.444
1.59817	118.889
1.59806	114.667
1.59796	118
1.59785	121.778
1.59775	119.556
1.59764	121.778
1.59754	120.222
1.59743	113.778
1.59733	119.333
1.59722	118.889
1.59712	119.111
1.59701	117.778
1.59691	120.444
1.5968	118.889
1.5967	117.333
1.59659	115.556
1.59649	112.444
1.59638	114.889
1.59628	116.222
1.59617	119.778
1.59607	116.444
1.59596	117.111
1.59586	113.778
1.59575	118.889
1.59565	126.667
1.59554	117.333
1.59544	121.778
1.59533	120.667
1.59523	119.556
1.59512	111.778
1.59502	118.667
1.59491	118.667
1.59481	115.111
1.5947	117.333
1.5946	114.889
1.59449	118.444
1.59439	115.333
1.59428	116
1.59418	116.889
1.59407	117.778
1.59397	119.556
1.59386	116.889
1.59376	114.222
1.59365	114.667
1.59355	111.556
1.59344	118.444
1.59334	121.333
1.59324	116.667
1.59313	112
1.59303	114.444
1.59292	117.111
1.59282	116.444
1.59271	115.778
1.59261	115.778
1.5925	112.444
1.5924	116.667
1.59229	115.111
1.59219	108.889
1.59209	113.111
1.59198	116.222
1.59188	117.556
1.59177	116.222
1.59167	112.222
1.59156	119.778
1.59146	114.444
1.59136	111.778
1.59125	120.222
1.59115	111.064
1.59104	111.652
1.59094	110.32
1.59083	115.66
1.59073	111.206
1.59063	116.783
1.59052	113.357
1.59042	108.393
1.59031	115.831
1.59021	116.341
1.5901	111.567
1.59	109.452
1.5899	108.857
1.58979	112.278
1.58969	112.852
1.58958	112.891
1.58948	110.156
1.58938	111.844
1.58927	105.75
1.58917	106.315
1.58906	109.807
1.58896	108.535
1.58886	109.521
1.58875	105.704
1.58865	108.898
1.58854	107.41
1.58844	106.654
1.58834	107.892
1.58823	106.797
1.58813	110.605
1.58802	106.355
1.58792	107.461
1.58782	106.236
1.58771	104.678
1.58761	101.85
1.58751	106.13
1.5874	106.208
1.5873	103.02
1.58719	103.702
1.58709	106.545
1.58699	108.15
1.58688	106.161
1.58678	108.164
1.58668	104.912
1.58657	104.435
1.58647	105.29
1.58636	106.028
1.58626	105.124
1.58616	106.439
1.58605	103.715
1.58595	104.66
1.58585	106.411
1.58574	105.886
1.58564	103.908
1.58554	104.554
1.58543	103.566
1.58533	103.95
1.58523	104.65
1.58512	105.823
1.58502	102.682
1.58492	105.185
1.58481	104.956
1.58471	103.611
1.58461	104.383
1.5845	104.976
1.5844	104.547
1.5843	100.896
1.58419	104.797
1.58409	104.895
1.58399	104.492
1.58388	103.917
1.58378	100.611
1.58368	102.383
1.58357	101.39
1.58347	100.414
1.58337	100.899
1.58326	100.478
1.58316	100.581
1.58306	104.734
1.58295	100.682
1.58285	96.9669
1.58275	98.1282
1.58264	101.349
1.58254	97.6447
1.58244	100.107
1.58234	99.7664
1.58223	100.36
1.58213	98.7062
1.58203	97.7246
1.58192	98.176
1.58182	96.7407
1.58172	98.5973
1.58161	96.953
1.58151	96.8725
1.58141	100.479
1.58131	98.41
1.5812	96.281
1.5811	98.1603
1.581	97.9479
1.58089	95.6457
1.58079	96.498
1.58069	97.2317
1.58059	95.2451
1.58049	96
1.58039	101.111
1.58028	97.5556
1.58018	96.4444
1.58008	99.5556
1.57997	96.2222
1.57987	96.6667
1.57977	93.1111
1.57966	94
1.57956	96.8889
1.57946	95.7778
1.57936	93.7778
1.57925	94.8889
1.57915	96.8889
1.57905	94.6667
1.57894	94
1.57884	99.5556
1.57874	95.7778
1.57863	100.444
1.57853	92
1.57843	96.6667
1.57832	94
1.57822	94.2222
1.57812	91.7778
1.57801	94.2222
1.57791	97.5556
1.57781	98.2222
1.57771	96.4444
1.5776	94
1.5775	93.7778
1.5774	102.444
1.57729	93.5556
1.57719	95.1111
1.57709	94.6667
1.57699	94.8889
1.57688	93.3333
1.57678	96
1.57668	92.8889
1.57657	95.5556
1.57647	96
1.57637	93.7778
1.57627	93.3333
1.57616	94.4444
1.57606	93.1111
1.57596	97.7778
1.57586	94.8889
1.57575	96.2222
1.57565	95.7778
1.57555	94
1.57544	97.7778
1.57534	95.1111
1.57524	97.1111
1.57514	98.8889
1.57503	91.3333
1.57493	95.7778
1.57483	90
1.57473	95.1111
1.57462	96.6667
1.57452	95.5556
1.57442	95.1111
1.57432	97.5556
1.57421	94.8889
1.57411	95.1111
1.57401	95.1111
1.57391	96.4444
1.5738	92.8889
1.5737	90.8889
1.5736	93.7778
1.5735	98.2222
1.57339	95.5556
1.57329	96.6667
1.57319	95.7778
1.57309	90.4444
1.57299	92.2222
1.57288	92.8889
1.57278	94.2222
1.57268	94.4444
1.57258	91.7778
1.57247	94.2222
1.57237	89.7778
1.57227	91.5556
1.57217	89.7778
1.57207	91.7778
1.57196	94.2222
1.57186	91.5556
1.57176	90.6667
1.57166	95.1111
1.57156	89.5556
1.57145	92.6667
1.57135	88.4444
1.57125	90.2222
1.57115	94.4444
1.57104	90.6667
1.57094	90
1.57084	92.2222
1.57074	90.2222
1.57064	90.6667
1.57054	92
1.57043	88.8889
1.57033	90
1.57023	89.7778
1.57013	89.7778
1.57003	87.1111
1.56992	91.1111
1.56982	92.6667
1.56972	86.8889
1.56962	88
1.56952	90.4444
1.56941	92
1.56931	93.3333
1.56921	91.7778
1.56911	92.4445
1.56901	89.3333
1.56891	88.6667
1.5688	89.5556
1.5687	93.1111
1.5686	86.8889
1.5685	93.5556
1.5684	90.2222
1.5683	88.6667
1.56819	90
1.56809	89.5556
1.56799	92.6667
1.56789	94.6667
1.56779	90.2222
1.56769	90.2222
1.56758	92.6667
1.56748	90.4444
1.56738	85.3333
1.56728	90.8889
1.56718	92.4444
1.56708	90.6667
1.56698	94.2222
1.56687	95.3333
1.56677	87.1111
1.56667	82.6667
1.56657	90.6667
1.56647	90.6667
1.56637	93.5556
1.56627	90.8889
1.56616	87.3333
1.56606	89.3333
1.56596	86.8889
1.56586	90.6667
1.56576	86.8889
1.56566	88.2222
1.56556	85.7778
1.56546	86.4444
1.56535	88.2222
1.56525	86.4445
1.56515	88
1.56505	92.6667
1.56495	88.6667
1.56485	85.7778
1.56475	91.1111
1.56465	87.5556
1.56455	85.7778
1.56444	85.7778
1.56434	88
1.56424	88.8889
1.56414	86.6667
1.56404	87.5556
1.56394	85.7778
1.56384	83.5556
1.56374	83.5556
1.56364	84.2222
1.56354	90
1.56343	84
1.56333	85.7778
1.56323	89.3333
1.56313	86.8889
1.56303	85.7778
1.56293	86.8889
1.56283	89.1111
1.56273	87.3333
1.56263	83.5556
1.56253	88.2222
1.56243	86.6667
1.56232	86.8889
1.56222	83.5555
1.56212	85.7778
1.56202	86.2222
1.56192	88
1.56182	84.8889
1.56172	84.6667
1.56162	84.8889
1.56152	88.2222
1.56142	83.7778
1.56132	87.1111
1.56122	88
1.56112	86
1.56102	85.3333
1.56091	85.7778
1.56081	86.4444
1.56071	86.6667
1.56061	86.8889
1.56051	85.5556
1.56041	83.1111
1.56031	88.4444
1.56021	81.3333
1.56011	87.3333
1.56001	84
1.55991	80.2222
1.55981	87.3333
1.55971	86.6667
1.55961	86.6667
1.55951	82.4444
1.55941	88.4445
1.55931	83.7778
1.55921	81.3333
1.55911	85.5555
1.55901	86.6667
1.55891	86.8889
1.55881	87.1111
1.55871	84.2222
1.5586	84.4444
1.5585	85.5555
1.5584	87.7778
1.5583	84.4445
1.5582	84
1.5581	86.2222
1.558	85.5556
1.5579	82.6667
1.5578	87.1111
1.5577	86.2222
1.5576	84.6667
1.5575	82.6667
1.5574	85.5556
1.5573	80.2222
1.5572	84.2222
1.5571	81.5556
1.557	83.3333
1.5569	87.5556
1.5568	83.1111
1.5567	88.4444
1.5566	81.7778
1.5565	80.6667
1.5564	82.4444
1.5563	84.6667
1.5562	82.2222
1.5561	84.6667
1.556	83.5556
1.5559	83.5556
1.5558	82
1.5557	82.8889
1.5556	88.6667
1.5555	80.8889
1.5554	84.8889
1.5553	78.4444
1.5552	85.5556
1.5551	79.1111
1.555	82.8889
1.5549	85.3333
1.5548	83.5556
1.55471	81.3333
1.55461	85.5556
1.55451	83.1111
1.55441	82.4444
1.55431	81.1111
1.55421	80.2222
1.55411	85.5556
1.55401	78.2222
1.55391	82
1.55381	82.8889
1.55371	79.7778
1.55361	82.2222
1.55351	79.7778
1.55341	83.3333
1.55331	77.7778
1.55321	81.5556
1.55311	84.6667
1.55301	82.4444
1.55291	76.8889
1.55281	76
1.55271	80.8889
1.55261	80
1.55251	80.6667
1.55242	78.8889
1.55232	79.1111
1.55222	79.5556
1.55212	77.1111
1.55202	84.2222
1.55192	80.6667
1.55182	80.8889
1.55172	80.4444
1.55162	84.2222
1.55152	81.7778
1.55142	79.3333
1.55132	81.5556
1.55122	80.4444
1.55112	83.3333
1.55102	80.4444
1.55093	80.2222
1.55083	78.8889
1.55073	78.8889
1.55063	78.6667
1.55053	83.7778
1.55043	80
1.55033	82.8889
1.55023	78.2222
1.55013	79.7778
1.55003	78.8889
1.54993	81.5556
1.54984	76.8889
1.54974	77.7778
1.54964	82
1.54954	80.8889
1.54944	80.4444
1.54934	79.7778
1.54924	82.2222
1.54914	78.2222
1.54904	86.4444
1.54894	85.5556
1.54885	81.1111
1.54875	77.3333
1.54865	81.1111
1.54855	79.1111
1.54845	81.3333
1.54835	81.5556
1.54825	76.6667
1.54815	78.2222
1.54805	78.2222
1.54796	79.7778
1.54786	82
1.54776	78.4444
1.54766	81.3333
1.54756	78.6667
1.54746	74.8889
1.54736	77.5556
1.54726	76.2222
1.54717	77.1111
1.54707	81.3333
1.54697	78.2222
1.54687	76.6667
1.54677	78.8889
1.54667	75.7778
1.54657	78.2222
1.54648	78.6667
1.54638	77.3333
1.54628	78.4444
1.54618	78.4444
1.54608	77.3333
1.54598	77.3333
1.54588	80.4444
1.54579	78.8889
1.54569	76.4444
1.54559	78.6667
1.54549	76.6667
1.54539	79.5556
1.54529	79.7778
1.5452	76.4444
1.5451	79.7778
1.545	81.3333
1.5449	74.2222
1.5448	73.1111
1.5447	76.6667
1.54461	79.7778
1.54451	80.4444
1.54441	75.5556
1.54431	79.5556
1.54421	75.3333
1.54411	81.3333
1.54402	82.6667
1.54392	77.1111
1.54382	79.3333
1.54372	79.5556
1.54362	75.7778
1.54352	81.5556
1.54343	80.6667
1.54333	73.7778
1.54323	75.1111
1.54313	79.1111
1.54303	72.8889
1.54294	76
1.54284	79.3333
1.54274	75.1111
1.54264	75.3333
1.54254	77.7778
1.54245	78.8889
1.54235	78.8889
1.54225	77.3333
1.54215	72.4444
1.54205	80.4445
1.54196	75.7778
1.54186	76.2222
1.54176	82.4444
1.54166	77.5556
1.54156	71.7778
1.54147	75.1111
1.54137	77.3333
1.54127	74
1.54117	77.5556
1.54107	74.6667
1.54098	80.2222
1.54088	76.8889
1.54078	76.8889
1.54068	75.5556
1.54059	75.7778
1.54049	76.6667
1.54039	73.1111
1.54029	76.4445
1.54019	70.6667
1.5401	74
1.54	74.2222
1.5399	74.2222
1.5398	74.2222
1.53971	73.7778
1.53961	76.2222
1.53951	73.1111
1.53941	72.8889
1.53932	76.2222
1.53922	72.2222
1.53912	73.3333
1.53902	75.5556
1.53893	76.2222
1.53883	71.5556
1.53873	77.5556
1.53863	78.2222
1.53854	74.8889
1.53844	70.4444
1.53834	71.3333
1.53824	76.2222
1.53815	72.2222
1.53805	77.1111
1.53795	75.7778
1.53785	78.4444
1.53776	76.6667
1.53766	70.8889
1.53756	72
1.53746	77.7778
1.53737	73.1111
1.53727	75.7778
1.53717	73.1111
1.53707	76.2222
1.53698	71.5556
1.53688	74.2222
1.53678	75.1111
1.53669	74.6667
1.53659	78.4444
1.53649	72.6667
1.53639	72.8889
1.5363	72.2222
1.5362	72
1.5361	74.2222
1.53601	76
1.53591	73.5556
1.53581	72.4445
1.53571	74.4444
1.53562	77.5556
1.53552	75.1111
1.53542	73.7778
1.53533	68
1.53523	72.2222
1.53513	73.1111
1.53503	73.1111
1.53494	72.2222
1.53484	70.2222
1.53474	72.8889
1.53465	72.2222
1.53455	71.5556
1.53445	70
1.53436	69.7778
1.53426	69.5556
1.53416	73.7778
1.53407	72.8889
1.53397	74.6667
1.53387	70.4444
1.53378	67.7778
1.53368	70.2222
1.53358	70.4444
1.53348	72.8889
1.53339	72.8889
1.53329	73.3333
1.53319	68
1.5331	73.7778
1.533	74.8889
1.5329	77.3333
1.53281	76.2222
1.53271	69.3333
1.53261	72.8889
1.53252	72.2222
1.53242	72.6667
1.53232	77.5556
1.53223	74.4445
1.53213	73.1111
1.53203	71.7778
1.53194	75.3333
1.53184	70.8889
1.53174	71.3333
1.53165	66.8889
1.53155	70.2222
1.53146	70.2222
1.53136	71.7778
1.53126	70
1.53117	70.8889
1.53107	70.4444
1.53097	71.1111
1.53088	69.7778
1.53078	70.4444
1.53068	70.8889
1.53059	71.1111
1.53049	68.8889
1.53039	70.6667
1.5303	73.5556
1.5302	72.6667
1.53011	74.4444
1.53001	68
1.52991	72
1.52982	74.8889
1.52972	74.2222
1.52962	68.4444
1.52953	73.3333
1.52943	73.3333
1.52934	68.4444
1.52924	68.8889
1.52914	73.5556
1.52905	67.5556
1.52895	71.7778
1.52885	67.7778
1.52876	67.7778
1.52866	67.7778
1.52857	70.8889
1.52847	69.1111
1.52837	71.3333
1.52828	68
1.52818	68.8889
1.52809	68.4444
1.52799	71.1111
1.52789	71.3333
1.5278	65.3333
1.5277	68.4444
1.52761	66.6667
1.52751	69.5556
1.52741	67.7778
1.52732	68.2222
1.52722	72
1.52713	72
1.52703	72.8889
1.52693	71.3333
1.52684	71.1111
1.52674	67.1111
1.52665	71.1111
1.52655	68.2222
1.52646	66.2222
1.52636	69.7778
1.52626	65.3333
1.52617	70.8889
1.52607	66.8889
1.52598	70.2222
1.52588	68.2222
1.52578	69.1111
1.52569	66.2222
1.52559	69.7778
1.5255	70.8889
1.5254	68.8889
1.52531	70.4444
1.52521	68.8889
1.52512	64.8889
1.52502	67.3333
1.52492	66.6667
1.52483	67.7778
1.52473	69.7778
1.52464	64.6667
1.52454	63.3333
1.52445	68.2222
1.52435	67.7778
1.52426	68
1.52416	64.8889
1.52406	62.8889
1.52397	64.2222
1.52387	69.3333
1.52378	69.1111
1.52368	68.8889
1.52359	69.1111
1.52349	69.5556
1.5234	68.4444
1.5233	66
1.52321	70.6667
1.52311	69.1111
1.52301	65.5556
1.52292	67.3333
1.52282	69.5556
1.52273	67.1111
1.52263	66.4444
1.52254	61.1111
1.52244	66.2222
1.52235	66.2222
1.52225	68.6667
1.52216	62.4444
1.52206	65.5556
1.52197	70
1.52187	68.2222
1.52178	67.7778
1.52168	63.7778
1.52159	62.8889
1.52149	70.2222
1.5214	66.4444
1.5213	70.8889
1.52121	68
1.52111	65.3333
1.52102	67.1111
1.52092	65.7778
1.52083	66
1.52073	67.1111
1.52064	69.5556
1.52054	70
1.52045	66.2222
1.52035	62
1.52026	63.5556
1.52016	68
1.52007	67.7778
1.51997	63.7778
1.51988	66
1.51978	70.2222
1.51969	67.3333
1.51959	65.1111
1.5195	66.8889
1.5194	66.2222
1.51931	70.8889
1.51921	69.4444
1.51912	65.3333
1.51902	65.3333
1.51893	68
1.51883	64.4444
1.51874	68.4444
1.51864	66.2222
1.51855	66.4444
1.51845	61.5556
1.51836	66.6667
1.51826	68
1.51817	66
1.51807	63.3333
1.51798	65.7778
1.51789	64.2222
1.51779	63.5556
1.5177	65.1111
1.5176	67.5556
1.51751	61.1111
1.51741	65.5556
1.51732	65.5556
1.51722	63.7778
1.51713	60.8889
1.51703	64.4444
1.51694	61.5556
1.51685	62.2222
1.51675	61.5556
1.51666	60.8889
1.51656	63.5556
1.51647	65.1111
1.51637	62.8889
1.51628	63.3333
1.51618	64.6667
1.51609	61.7778
1.516	65.5556
1.5159	62.6667
1.51581	65.5556
1.51571	64.2222
1.51562	60.6667
1.51552	63.5556
1.51543	60.6667
1.51533	63.5556
1.51524	64.8889
1.51515	62.4444
1.51505	64
1.51496	62.8889
1.51486	64.2222
1.51477	66
1.51468	64.4444
1.51458	65.1111
1.51449	67.1111
1.51439	63.5556
1.5143	65.3333
1.5142	67.3333
1.51411	64.6667
1.51402	62.6667
1.51392	61.7778
1.51383	65.5556
1.51373	64.8889
1.51364	64.4444
1.51355	65.5556
1.51345	62.8889
1.51336	66.8889
1.51326	66.2222
1.51317	64.8889
1.51308	64.2222
1.51298	65.1111
1.51289	63.1111
1.51279	60.2222
1.5127	62.2222
1.51261	65.5556
1.51251	64.2222
1.51242	66.4444
1.51232	61.7778
1.51223	63.5556
1.51214	64.2222
1.51204	66.4444
1.51195	64.4445
1.51186	59.7778
1.51176	62.6667
1.51167	64
1.51157	61.7778
1.51148	60.8889
1.51139	63.5556
1.51129	59.7778
1.5112	63.1111
1.51111	61.3333
1.51101	61.5556
1.51092	64
1.51082	61.7778
1.51073	63.5556
1.51064	62.4444
1.51054	62.8889
1.51045	62.4444
1.51036	61.3333
1.51026	62.6667
1.51017	58
1.51008	61.5556
1.50998	58.2222
1.50989	60.8889
1.50979	61.7778
1.5097	60
1.50961	60.2222
1.50951	60.4444
1.50942	61.1111
1.50933	59.5556
1.50923	64.8889
1.50914	61.5556
1.50905	59.5556
1.50895	59.5556
1.50886	60.6667
1.50877	61.3333
1.50867	63.5556
1.50858	59.5556
1.50849	59.3333
1.50839	61.5556
1.5083	65.1111
1.50821	60.8889
1.50811	63.1111
1.50802	62
1.50793	60.4444
1.50783	62.6667
1.50774	60.6667
1.50765	63.3333
1.50755	61.1111
1.50746	57.3333
1.50737	60.2222
1.50727	63.5556
1.50718	62.2222
1.50709	65.3333
1.50699	58
1.5069	60.4444
1.50681	59.7778
1.50672	64.4444
1.50662	57.5556
1.50653	59.3333
1.50644	58.4444
1.50634	60.2222
1.50625	57.7778
1.50616	60.2222
1.50606	59.7778
1.50597	59.3333
1.50588	57.5556
1.50578	62.6667
1.50569	63.5556
1.5056	61.3333
1.50551	58.6667
1.50541	55.1111
1.50532	56.8889
1.50523	58
1.50513	59.3333
1.50504	58.6667
1.50495	58.6667
1.50486	56.4444
1.50476	59.3333
1.50467	58
1.50458	57.5556
1.50448	58.6667
1.50439	59.1111
1.5043	61.1111
1.50421	59.1111
1.50411	58.6667
1.50402	58.6667
1.50393	59.5556
1.50384	61.3333
1.50374	59.5556
1.50365	60.8889
1.50356	59.3333
1.50346	60
1.50337	60
1.50328	54.8889
1.50319	58
1.50309	61.3333
1.503	60
1.50291	61.3333
1.50282	61.7778
1.50272	59.5556
1.50263	61.1111
1.50254	53.7778
1.50245	59.1111
1.50235	61.3333
1.50226	56.8889
1.50217	61.5556
1.50208	60.4444
1.50198	56.8889
1.50189	60.8889
1.5018	55.1111
1.50171	61.1111
1.50161	62
1.50152	54.2222
1.50143	61.1111
1.50134	61.1111
1.50124	60.4444
1.50115	58
1.50106	60.8889
1.50097	59.7778
1.50087	57.5556
1.50078	62.4444
1.50069	57.7778
1.5006	62
1.50051	56.4444
1.50041	54
1.50032	58.6573
1.50023	59.2456
1.50014	60.0024
1.50004	58.4784
1.49995	57.8499
1.49986	56.9049
1.49977	57.5671
1.49968	59.4052
1.49958	59.2871
1.49949	56.7108
1.4994	55.7726
1.49931	55.0706
1.49922	56.4872
1.49912	55.9629
1.49903	52.8901
1.49894	55.808
1.49885	55.6868
1.49875	57.6805
1.49866	53.2871
1.49857	58.9096
1.49848	55.7557
1.49839	55.0489
1.49829	54.8562
1.4982	57.0329
1.49811	57.0871
1.49802	55.1713
1.49793	55.5756
1.49784	56.9978
1.49774	53.2382
1.49765	55.3157
1.49756	54.5166
1.49747	53.6736
1.49738	55.0988
1.49728	55.3658
1.49719	57.5322
1.4971	54.503
1.49701	58.1932
1.49692	58.6725
1.49683	55.8441
1.49673	58.7318
1.49664	58.6655
1.49655	58.9357
1.49646	54.8075
1.49637	58.3664
1.49627	58.3313
1.49618	57.8807
1.49609	55.8339
1.496	58.5661
1.49591	58.6899
1.49582	57.119
1.49572	57.8938
1.49563	55.3004
1.49554	56.3501
1.49545	54.6101
1.49536	55.7025
1.49527	56.2568
1.49518	54.6016
1.49508	55.034
1.49499	57.1331
1.4949	54.2937
1.49481	58.4179
1.49472	54.5639
1.49463	54.4525
1.49454	54.2892
1.49444	55.7731
1.49435	52.0391
1.49426	54.3077
1.49417	56.5447
1.49408	54.4399
1.49399	53.2087
1.4939	53.3051
1.4938	53.4257
1.49371	52.7883
1.49362	52.8471
1.49353	53.3537
1.49344	52.8658
1.49335	51.5018
1.49326	54.2624
1.49316	54.9131
1.49307	52.7155
1.49298	50.9074
1.49289	52.774
1.4928	52.0096
1.49271	52.0993
1.49262	51.8884
1.49253	54.1422
1.49244	50.7869
1.49234	50.2348
1.49225	53.1877
1.49216	51.4599
1.49207	51.2595
1.49198	51.7906
1.49189	51.3457
1.4918	51.2496
1.49171	51.7796
1.49162	51.4705
1.49152	51.7696
1.49143	52.8918
1.49134	52.667
1.49125	52.6222
1.49116	52.8247
1.49113	52.8889
1.49104	51.5556
1.49095	55.1111
1.49086	56.2222
1.49076	52.4444
1.49067	55.5556
1.49058	54.2222
1.49049	53.7778
1.4904	54.6667
1.49031	56.4444
1.49022	50.6667
1.49012	54.6667
1.49003	54
1.48994	54.4444
1.48985	54.8889
1.48976	54.8889
1.48967	56.8889
1.48958	55.5556
1.48948	54.8889
1.48939	52.2222
1.4893	53.3333
1.48921	49.7778
1.48912	52
1.48903	54.2222
1.48894	53.3333
1.48885	52.6667
1.48875	55.1111
1.48866	50.8889
1.48857	52
1.48848	54.8889
1.48839	55.3333
1.4883	52.8889
1.48821	54
1.48812	51.5556
1.48803	51.5556
1.48793	55.3333
1.48784	52.4444
1.48775	52.2222
1.48766	53.3333
1.48757	50.2222
1.48748	48.8889
1.48739	50.4444
1.4873	47.3333
1.48721	50.6667
1.48711	49.1111
1.48702	51.7778
1.48693	51.5556
1.48684	48.2222
1.48675	52.6667
1.48666	50.8889
1.48657	42.4444
1.48648	51.7778
1.48639	50
1.4863	52
1.48621	50.4444
1.48611	52
1.48602	51.3333
1.48593	50.2222
1.48584	51.5556
1.48575	52.4444
1.48566	51.5556
1.48557	48.6667
1.48548	49.7778
1.48539	50
1.4853	52.4444
1.48521	52.6667
1.48512	51.7778
1.48503	51.5556
1.48493	56.2222
1.48484	54
1.48475	50.2222
1.48466	50.4444
1.48457	54.6667
1.48448	52.2222
1.48439	56.4444
1.4843	54.2222
1.48421	54.4444
1.48412	53.3333
1.48403	54
1.48394	54
1.48385	51.7778
1.48376	52.8889
1.48367	52.2222
1.48358	50
1.48349	53.1111
1.48339	55.3333
1.4833	52.8889
1.48321	54
1.48312	53.7778
1.48303	51.1111
1.48294	49.3333
1.48285	54.2222
1.48276	51.1111
1.48267	49.1111
1.48258	53.3333
1.48249	48.8889
1.4824	51.1111
1.48231	50
1.48222	49.7778
1.48213	50.2222
1.48204	49.7778
1.48195	48.2222
1.48186	52.4444
1.48177	50.2222
1.48168	50.8889
1.48159	47.1111
1.4815	49.7778
1.48141	45.7778
1.48132	50.8889
1.48123	46
1.48114	49.5556
1.48105	48
1.48096	46.8889
1.48087	46.6667
1.48078	45.5556
1.48069	48.2222
1.4806	48.8889
1.48051	47.5556
1.48042	50.4444
1.48033	44.6667
1.48024	50.4444
1.48015	45.5556
1.48006	49.5556
1.47997	49.5556
1.47988	49.5556
1.47979	49.7778
1.4797	52.2222
1.47961	51.7778
1.47952	52.2222
1.47943	50
1.47934	48.2222
1.47925	52
1.47916	47.3333
1.47907	53.1111
1.47898	53.5556
1.47889	52.8889
1.4788	53.3333
1.47871	52
1.47862	53.3333
1.47853	50
1.47844	51.7778
1.47835	52
1.47826	50.6667
1.47817	53.1111
1.47808	52
1.47799	48.6667
1.4779	52.2222
1.47781	51.1111
1.47772	49.7778
1.47763	51.5556
1.47754	52.4444
1.47745	48.4444
1.47736	52
1.47727	51.7778
1.47718	51.7778
1.47709	46.6667
1.477	48.6667
1.47691	51.1111
1.47682	48
1.47673	49.7778
1.47664	46.6667
1.47655	45.5556
1.47646	46
1.47637	47.3333
1.47628	48
1.47619	46.6667
1.4761	49.1111
1.47602	44.6667
1.47593	44.6667
1.47584	42.2222
1.47575	46
1.47566	45.7778
1.47557	48.8889
1.47548	45.5556
1.47539	43.5556
1.4753	47.7778
1.47521	45.7778
1.47512	45.5556
1.47503	47.3333
1.47494	46.8889
1.47485	43.1111
1.47476	46.8889
1.47467	47.7778
1.47459	44.2222
1.4745	48.2222
1.47441	47.7778
1.47432	45.5556
1.47423	48.6667
1.47414	44.4444
1.47405	47.1111
1.47396	46.4444
1.47387	46.6667
1.47378	48.8889
1.47369	46.8889
1.4736	48.4444
1.47351	50.2222
1.47342	51.5556
1.47334	46.4444
1.47325	47.5556
1.47316	52.6667
1.47307	53.3333
1.47298	48.8889
1.47289	51.7778
1.4728	50.6667
1.47271	50.4444
1.47262	49.3333
1.47253	50.8889
1.47244	47.1111
1.47236	48
1.47227	49.1111
1.47218	47.7778
1.47209	49.5556
1.472	45.3333
1.47191	52
1.47182	46.8889
1.47173	46.4444
1.47164	47.3333
1.47156	46.6667
1.47147	46.6667
1.47138	47.5556
1.47129	48.8889
1.4712	46
1.47111	42.8889
1.47102	44.6667
1.47093	43.7778
1.47084	42.8889
1.47076	42.6667
1.47067	45.3333
1.47058	43.3333
1.47049	45.7778
1.4704	44.2222
1.47031	40.2222
1.47022	43.1111
1.47013	45.3333
1.47005	44.6667
1.46996	42.6667
1.46987	40.4444
1.46978	44.2222
1.46969	39.3333
1.4696	46.6667
1.46951	42.4444
1.46942	43.3333
1.46934	42.4444
1.46925	40.4444
1.46916	44.6667
1.46907	42.4444
1.46898	42.6667
1.46889	47.5556
1.4688	45.3333
1.46872	43.1111
1.46863	42.6667
1.46854	46.8889
1.46845	45.3333
1.46836	46
1.46827	45.3333
1.46819	46
1.4681	46.6667
1.46801	47.3333
1.46792	48.4444
1.46783	48.4444
1.46774	47.7778
1.46765	45.5556
1.46757	46.8889
1.46748	49.3333
1.46739	48
1.4673	47.3333
1.46721	51.3333
1.46712	44.2222
1.46704	47.5556
1.46695	47.7778
1.46686	47.3333
1.46677	49.3333
1.46668	44
1.46659	50.4444
1.46651	46
1.46642	46.2222
1.46633	42.6667
1.46624	45.1111
1.46615	47.5556
1.46607	46
1.46598	41.3333
1.46589	43.1111
1.4658	43.5556
1.46571	47.1111
1.46562	43.3333
1.46554	43.7778
1.46545	44.4444
1.46536	42
1.46527	40.6667
1.46518	43.3333
1.4651	43.7778
1.46501	39.7778
1.46492	38.4444
1.46483	37.1111
1.46474	38.6667
1.46466	40.6667
1.46457	38.2222
1.46448	40
1.46439	39.3333
1.4643	39.5556
1.46422	37.1111
1.46413	40.4444
1.46404	41.5556
1.46395	38
1.46386	38.8889
1.46378	36.8889
1.46369	42.2222
1.4636	39.7778
1.46351	36.4444
1.46342	36
1.46334	38.8889
1.46325	41.7778
1.46316	40.8889
1.46307	42
1.46299	42
1.4629	39.7778
1.46281	47.5556
1.46272	41.5556
1.46263	44.2222
1.46255	39.1111
1.46246	44.8889
1.46237	43.5556
1.46228	41.5556
1.4622	44.6667
1.46211	44
1.46202	48.4444
1.46193	45.3333
1.46185	45.5556
1.46176	49.1111
1.46167	45.1111
1.46158	47.5556
1.4615	42.2222
1.46141	45.7778
1.46132	43.7778
1.46123	44.8889
1.46114	44.4444
1.46106	44.6667
1.46097	38.2222
1.46088	41.7778
1.46079	40.8889
1.46071	43.1111
1.46062	40.8889
1.46053	38
1.46045	38
1.46036	37.5556
1.46027	36
1.46018	38.4444
1.4601	38
1.46001	38.8889
1.45992	35.5556
1.45983	37.3333
1.45975	36.6667
1.45966	36.8889
1.45957	35.7778
1.45948	38.4444
1.4594	37.1111
1.45931	35.1111
1.45922	34.6667
1.45913	34
1.45905	35.3333
1.45896	36.2222
1.45887	36.4444
1.45879	33.7778
1.4587	37.3333
1.45861	33.5556
1.45852	31.7778
1.45844	35.7778
1.45835	38.4444
1.45826	38.4444
1.45818	37.7778
1.45809	40.4444
1.458	34.4444
1.45791	37.1111
1.45783	37.5556
1.45774	38
1.45765	42.2222
1.45757	41.5556
1.45748	37.7778
1.45739	36.8889
1.4573	42
1.45722	42.8889
1.45713	37.7778
1.45704	40.6667
1.45696	38.8889
1.45687	42.8889
1.45678	38.2222
1.4567	38.6667
1.45661	41.5556
1.45652	40.2222
1.45643	39.7778
1.45635	37.1111
1.45626	38.4444
1.45617	38
1.45609	35.3333
1.456	34.4444
1.45591	37.3333
1.45583	33.1111
1.45574	35.3333
1.45565	37.1111
1.45557	37.5556
1.45548	33.7778
1.45539	34.2222
1.45531	34.4444
1.45522	35.5556
1.45513	33.3333
1.45505	31.7778
1.45496	33.5556
1.45487	31.7778
1.45479	30.8889
1.4547	31.7778
1.45461	31.5556
1.45453	32.4444
1.45444	29.5556
1.45435	31.1111
1.45427	30.2222
1.45418	30.6667
1.45409	33.3333
1.45401	32
1.45392	34.8889
1.45383	36.6667
1.45375	34.8889
1.45366	32.6667
1.45357	30.8889
1.45349	34
1.4534	31.7778
1.45331	34.8889
1.45323	35.7778
1.45314	31.7778
1.45305	32.2222
1.45297	36.4444
1.45288	34
1.45279	35.1111
1.45271	34.4444
1.45262	34.4444
1.45254	33.7778
1.45245	34.2222
1.45236	33.7778
1.45228	29.3333
1.45219	34.2222
1.4521	31.3333
1.45202	28.8889
1.45193	31.1111
1.45184	30.2222
1.45176	31.5556
1.45167	28.8889
1.45159	29.3333
1.4515	31.5556
1.45141	29.1111
1.45133	28.6667
1.45124	26.2222
1.45115	30.8889
1.45107	29.3333
1.45098	30
1.4509	27.1111
1.45081	29.1111
1.45072	27.1111
1.45064	30.2222
1.45055	27.3333
1.45046	30
1.45038	26.4444
1.45029	27.7778
1.45021	28.8889
1.45012	27.7778
1.45003	30.2222
1.44995	25.5556
1.44986	28.4444
1.44978	27.5556
1.44969	28
1.4496	26.2222
1.44952	27.7778
1.44943	27.5556
1.44935	26.8889
1.44926	28
1.44917	28.4444
1.44909	27.5556
1.449	27.5556
1.44892	26.6667
1.44883	25.3333
1.44874	25.1111
1.44866	26
1.44857	26.2222
1.44849	26.6667
1.4484	28.2222
1.44831	26.8889
1.44823	26.8889
1.44814	28.4444
1.44806	27.5556
1.44797	26
1.44789	27.3333
1.4478	27.5556
1.44771	27.3333
1.44763	26.6667
1.44754	27.7778
1.44746	25.1111
1.44737	25.3333
1.44729	25.1111
1.4472	26.4444
1.44711	27.3333
1.44703	27.3333
1.44694	26
1.44686	30.4444
1.44677	27.3333
1.44669	26.8889
1.4466	28.2222
1.44651	24.2222
1.44643	26.2222
1.44634	27.1111
1.44626	24.6667
1.44617	25.3333
1.44609	28.8889
1.446	26
1.44592	25.3333
1.44583	25.1111
1.44574	31.1111
1.44566	25.5556
1.44557	27.7778
1.44549	25.7778
1.4454	25.5556
1.44532	26.4444
1.44523	27.7778
1.44515	26.2222
1.44506	24.8889
1.44498	25.1111
1.44489	28
1.4448	26.4444
1.44472	26.8889
1.44463	24.2222
1.44455	27.1111
1.44446	26.4444
1.44438	27.3333
1.44429	26.2222
1.44421	28.4444
1.44412	25.3333
1.44404	28.4444
1.44395	27.3333
1.44387	25.1111
1.44378	27.1111
1.4437	24.6667
1.44361	26.6667
1.44352	26.2222
1.44344	27.5556
1.44335	22.6667
1.44327	21.3333
1.44318	27.1111
1.4431	27.5556
1.44301	25.5556
1.44293	27.1111
1.44284	29.1111
1.44276	24.8889
1.44267	23.3333
1.44259	26.2222
1.4425	24.8889
1.44242	27.1111
1.44233	26.8889
1.44225	27.7778
1.44216	24.8889
1.44208	25.3333
1.44199	25.5556
1.44191	27.7778
1.44182	25.7778
1.44174	26.8889
1.44165	27.5556
1.44157	27.3333
1.44148	24.8889
1.4414	27.5556
1.44131	24
1.44123	26
1.44114	27.5556
1.44106	23.5556
1.44097	25.1111
1.44089	26.4444
1.4408	26.4444
1.44072	27.5556
1.44063	26.8889
1.44055	26.8889
1.44046	25.7778
1.44038	25.3333
1.44029	26.6667
1.44021	26.4444
1.44012	25.3333
1.44004	27.1111
1.43996	27.7778
1.43987	26.6667
1.43979	28.4444
1.4397	26.8889
1.43962	25.3333
1.43953	26.2222
1.43945	27.1111
1.43936	27.7778
1.43928	24.4444
1.43919	26.8889
1.43911	28.2222
1.43902	24
1.43894	26.6667
1.43885	24.4444
1.43877	26.2222
1.43868	24
1.4386	25.5556
1.43852	27.3333
1.43843	26.8889
1.43835	25.7778
1.43826	25.5556
1.43818	25.3333
1.43809	25.7778
1.43801	27.5556
1.43792	29.1111
1.43784	26.8889
1.43776	28.8889
1.43767	23.3333
1.43759	26.8889
1.4375	29.5556
1.43742	29.1111
1.43733	24
1.43725	26.6667
1.43716	27.7778
1.43708	24.8889
1.437	24.6667
1.43691	25.1111
1.43683	27.3333
1.43674	26
1.43666	26.4444
1.43657	27.5556
1.43649	25.1111
1.4364	24.8889
1.43632	26.4444
1.43624	24.8889
1.43615	25.3333
1.43607	24.8889
1.43598	26.2222
1.4359	28.2222
1.43582	25.5556
1.43573	28
1.43565	22.4444
1.43556	28
1.43548	27.1111
1.43539	28.4444
1.43531	27.1111
1.43523	23.5556
1.43514	25.1111
1.43506	27.3333
1.43497	24.4444
1.43489	25.5556
1.43481	26.2222
1.43472	26.4444
1.43464	26.8889
1.43455	25.5556
1.43447	26.4444
1.43439	26.4444
1.4343	27.7778
1.43422	28.6667
1.43413	26.8889
1.43405	26.4444
1.43397	28
1.43388	26.8889
1.4338	27.3333
1.43371	26.2222
1.43363	25.1111
1.43355	24
1.43346	25.3333
1.43338	28.8889
1.43329	24.2222
1.43321	24.4444
1.43313	26.2222
1.43304	25.5556
1.43296	27.3333
1.43287	23.5556
1.43279	26.2222
1.43271	27.3333
1.43262	24.2222
1.43254	26
1.43246	25.7778
1.43237	25.3333
1.43229	23.5556
1.4322	26.4444
1.43212	27.5556
1.43204	27.1111
1.43195	27.7778
1.43187	28
1.43179	25.1111
1.4317	30.2222
1.43162	26.8889
1.43153	26.6667
1.43145	26.4444
1.43137	25.3333
1.43128	24
1.4312	22.6667
1.43112	25.5556
1.43103	24.8889
1.43095	24
1.43087	22.4444
1.43078	27.5556
1.4307	26.2222
1.43061	23.5556
1.43053	27.3333
1.43045	26
1.43036	25.1111
1.43028	24.6667
1.4302	25.3333
1.43011	26
1.43003	23.1111
1.42995	26
1.42986	25.1111
1.42978	25.1111
1.4297	27.5556
1.42961	23.1111
1.42953	26.4444
1.42945	25.5556
1.42936	21.1111
1.42928	24.6667
1.4292	27.5556
1.42911	27.1111
1.42903	26.8889
1.42895	26
1.42886	26
1.42878	24.8889
1.4287	24
1.42861	27.3333
1.42853	25.7778
1.42845	24.2222
1.42836	23.5556
1.42828	24.4444
1.4282	27.1111
1.42811	24.4444
1.42803	26.4444
1.42795	27.1111
1.42786	26.6667
1.42778	25.3333
1.4277	27.1111
1.42761	25.3333
1.42753	27.1111
1.42745	25.1111
1.42736	25.3333
1.42728	25.3333
1.4272	26.8889
1.42712	25.7778
1.42703	24.2222
1.42695	24.2222
1.42687	26.2222
1.42678	24.8889
1.4267	26.6667
1.42662	26.2222
1.42653	26
1.42645	26.8889
1.42637	26.4444
1.42629	27.3333
1.4262	25.1111
1.42612	26.2222
1.42604	25.5556
1.42595	28.2222
1.42587	27.7778
1.42579	26.4444
1.4257	26.6667
1.42562	27.7778
1.42554	25.5556
1.42546	24
1.42537	25.3333
1.42529	24
1.42521	27.1111
1.42512	26.8889
1.42504	22.6667
1.42496	25.3333
1.42488	26.8889
1.42479	26.8889
1.42471	23.1111
1.42463	25.7778
1.42455	24.8889
1.42446	24.8889
1.42438	24
1.4243	26
1.42421	27.1111
1.42413	23.3333
1.42405	20.8889
1.42397	26.2222
1.42388	22.2222
1.4238	25.7778
1.42372	26.2222
1.42364	25.1111
1.42355	25.1111
1.42347	24.8889
1.42339	23.5556
1.4233	24.6667
1.42322	24.8889
1.42314	26.2222
1.42306	24.8889
1.42297	24.2222
1.42289	24.4444
1.42281	25.3333
1.42273	23.7778
1.42264	26.6667
1.42256	25.7778
1.42248	26
1.4224	24.4444
1.42231	24.8889
1.42223	24.6667
1.42215	26.8889
1.42207	27.3333
1.42198	25.5556
1.4219	26.4444
1.42182	26.4444
1.42174	26.4444
1.42166	26.6667
1.42157	25.3333
1.42149	23.5556
1.42141	26
1.42133	26.2222
1.42124	23.5556
1.42116	23.7778
1.42108	24.8889
1.421	28
1.42091	26.2222
1.42083	22.8889
1.42075	29.1111
1.42067	25.1111
1.42059	28
1.4205	26
1.42042	26.2222
1.42034	25.5556
1.42026	24.2222
1.42017	23.1111
1.42009	26.8889
1.42001	26.6667
1.41993	23.1197
1.41985	27.6775
1.41976	23.5667
1.41968	26.5566
1.4196	25.5287
1.41952	24.4984
1.41943	28.4462
1.41935	25.8544
1.41927	24.7789
1.41919	24.1609
1.41911	21.7523
1.41902	23.3216
1.41894	24.8094
1.41886	24.4002
1.41878	25.3187
1.4187	24.3896
1.41861	23.3597
1.41853	24.8921
1.41845	25.3103
1.41837	23.8893
1.41829	26.3805
1.4182	26.5614
1.41812	27.3064
1.41804	25.0535
1.41796	24.8442
1.41788	24.6452
1.4178	24.2108
1.41771	23.8194
1.41763	24.25
1.41755	27.6209
1.41747	25.2438
1.41739	23.1438
1.4173	22.9872
1.41722	25.6847
1.41714	25.7012
1.41706	23.3794
1.41698	23.9921
1.4169	22.6382
1.41681	24.2418
1.41673	24.6079
1.41665	26.1556
1.41657	25.5405
1.41649	24.0697
1.4164	22.6585
1.41632	24.6788
1.41624	24.3314
1.41616	24.346
1.41608	23.6444
1.416	23.4797
1.41591	23.7989
1.41583	24.4549
1.41575	25.7321
1.41567	25.1603
1.41559	24.812
1.41551	25.1096
1.41542	25.3925
1.41534	23.2686
1.41526	22.9023
1.41518	23.869
1.4151	23.6932
1.41502	24.8191
1.41494	24.6889
1.41485	22.5649
1.41477	23.548
1.41469	23.6008
1.41461	23.6173
1.41453	24.0614
1.41445	25.3068
1.41437	26.0982
1.41428	23.424
1.4142	22.9741
1.41412	23.7229
1.41404	24.3557
1.41396	24.5413
1.41388	25.0674
1.4138	25.4681
1.41371	24.7421
1.41363	25.1404
1.41355	26.6595
1.41347	25.4221
1.41339	24.2355
1.41331	25.2109
1.41323	24.3345
1.41315	25.3271
1.41306	24.8111
1.41298	25.5021
1.4129	26.9657
1.41282	24.2065
1.41274	24.6188
1.41266	26.4919
1.41258	26.1844
1.4125	25.9072
1.41241	24.9683
1.41233	22.2765
1.41225	24.9125
1.41217	28.2595
1.41209	24.5303
1.41201	23.1342
1.41193	26.3826
1.41185	25.1198
1.41176	24.4458
1.41168	22.0991
1.4116	22.8549
1.41153	25.1111
1.41145	23.7778
1.41137	24.6667
1.41129	27.5556
1.41121	22.8889
1.41113	25.1111
1.41104	27.3333
1.41096	24.2222
1.41088	26.8889
1.4108	26.2222
1.41072	27.1111
1.41064	24.8889
1.41056	24.8889
1.41047	25.7778
1.41039	24.4444
1.41031	23.7778
1.41023	25.1111
1.41015	27.7778
1.41007	22
1.40999	24.8889
1.4099	27.1111
1.40982	28
1.40974	25.7778
1.40966	27.1111
1.40958	27.1111
1.4095	25.1111
1.40942	29.1111
1.40934	28.8889
1.40925	28.2222
1.40917	28
1.40909	34.2222
1.40901	33.1111
1.40893	30.6667
1.40885	32.8889
1.40877	30.8889
1.40869	32
1.4086	30.6667
1.40852	28.6667
1.40844	29.5556
1.40836	33.1111
1.40828	32.6667
1.4082	30.6667
1.40812	30.8889
1.40804	27.7778
1.40795	30.2222
1.40787	28.2222
1.40779	29.3333
1.40771	32.8889
1.40763	30.6667
1.40755	27.7778
1.40747	30
1.40739	28.6667
1.40731	29.7778
1.40723	28
1.40714	28.8889
1.40706	32.4444
1.40698	32
1.4069	28.8889
1.40682	31.7778
1.40674	28.2222
1.40666	28.8889
1.40658	30.2222
1.4065	32
1.40642	34.6667
1.40633	32.4444
1.40625	32
1.40617	32
1.40609	34.8889
1.40601	32.4444
1.40593	32.4444
1.40585	34.2222
1.40577	37.5556
1.40569	33.5556
1.40561	33.1111
1.40553	36.4444
1.40545	34.2222
1.40536	33.5556
1.40528	38
1.4052	36.2222
1.40512	34.6667
1.40504	35.3333
1.40496	35.7778
1.40488	36.6667
1.4048	35.7778
1.40472	36
1.40464	38.6667
1.40456	40.8889
1.40448	47.5556
1.4044	286
1.40432	1059.78
1.40423	490
1.40415	81.7778
1.40407	39.1111
1.40399	40.2222
1.40391	37.1111
1.40383	35.3333
1.40375	38.8889
1.40367	33.1111
1.40359	41.3333
1.40351	35.3333
1.40343	38.8889
1.40335	39.1111
1.40327	32.6667
1.40319	36.8889
1.40311	38.6667
1.40303	36
1.40295	32.4444
1.40286	37.5556
1.40278	36.8889
1.4027	36.8889
1.40262	35.5556
1.40254	36.2222
1.40246	37.5556
1.40238	35.5556
1.4023	37.7778
1.40222	34
1.40214	34.4444
1.40206	37.3333
1.40198	38
1.4019	35.3333
1.40182	37.3333
1.40174	36.4444
1.40166	36.2222
1.40158	34.6667
1.4015	36.6667
1.40142	38.4444
1.40134	38
1.40126	38
1.40118	38.6667
1.4011	36.4444
1.40102	37.3333
1.40094	34.6667
1.40086	38.4444
1.40078	39.7778
1.4007	35.5556
1.40062	38.2222
1.40054	38.2222
1.40046	34.8889
1.40038	38.4444
1.4003	38.4444
1.40022	38.8889
1.40013	34.6667
1.40005	36.6667
1.39997	38
1.39989	35.5556
1.39981	38.6667
1.39973	38.2222
1.39965	39.1111
1.39957	34.4444
1.39949	38.6667
1.39941	35.7778
1.39933	40.8889
1.39925	36.4444
1.39917	38.6667
1.39909	38
1.39901	39.3333
1.39893	37.5556
1.39885	38.6667
1.39877	37.1111
1.39869	38.6667
1.39861	36.6667
1.39853	36.8889
1.39845	35.7778
1.39837	37.1111
1.39829	39.3333
1.39821	36.8889
1.39814	38
1.39806	37.7778
1.39798	36.8889
1.3979	37.5556
1.39782	36.8889
1.39774	38.2222
1.39766	38.2222
1.39758	39.7778
1.3975	37.1111
1.39742	39.3333
1.39734	36
1.39726	36.4444
1.39718	37.5556
1.3971	37.3333
1.39702	39.1111
1.39694	39.3333
1.39686	37.7778
1.39678	39.5556
1.3967	40.6667
1.39662	34.4444
1.39654	38.8889
1.39646	38.6667
1.39638	36.2222
1.3963	38.4444
1.39622	38.4444
1.39614	36.6667
1.39606	38.6667
1.39598	37.1111
1.3959	37.7778
1.39582	36.2222
1.39574	39.3333
1.39566	38.8889
1.39558	36.6667
1.3955	37.7778
1.39543	39.7778
1.39535	35.7778
1.39527	36.4444
1.39519	38
1.39511	34
1.39503	36.6667
1.39495	37.5556
1.39487	37.5556
1.39479	37.7778
1.39471	37.7778
1.39463	38
1.39455	42.2222
1.39447	34.2222
1.39439	40
1.39431	39.5556
1.39423	41.3333
1.39415	40.2222
1.39407	40.6667
1.394	34.6667
1.39392	38.6667
1.39384	38.8889
1.39376	38.8889
1.39368	38.2222
1.3936	42.2222
1.39352	37.3333
1.39344	37.5556
1.39336	38.4444
1.39328	37.1111
1.3932	39.5556
1.39312	30.6667
1.39304	39.5556
1.39296	37.5556
1.39289	36.4444
1.39281	37.5556
1.39273	36.8889
1.39265	36
1.39257	38.6667
1.39249	36.8889
1.39241	39.5556
1.39233	41.3333
1.39225	40.6667
1.39217	37.5556
1.39209	42.6667
1.39201	38.4444
1.39194	39.3333
1.39186	38.8889
1.39178	36.2222
1.3917	38
1.39162	38.4444
1.39154	37.7778
1.39146	39.1111
1.39138	38.6667
1.3913	36.8889
1.39122	37.1111
1.39115	41.7778
1.39107	37.1111
1.39099	39.7778
1.39091	37.1111
1.39083	40.4444
1.39075	36.4444
1.39067	40.2222
1.39059	40
1.39051	36.8889
1.39044	36.8889
1.39036	37.3333
1.39028	36.4444
1.3902	38.6667
1.39012	38.4444
1.39004	36.4444
1.38996	37.3333
1.38988	38.8889
1.3898	40.4444
1.38973	35.3333
1.38965	36.6667
1.38957	38
1.38949	40
1.38941	36.4444
1.38933	41.1111
1.38925	38.8889
1.38917	38
1.3891	36
1.38902	39.3333
1.38894	40.8889
1.38886	40.2222
1.38878	36.2222
1.3887	39.1111
1.38862	37.1111
1.38854	37.3333
1.38847	38
1.38839	38.6667
1.38831	36.6667
1.38823	40.8889
1.38815	37.1111
1.38807	38
1.38799	34.4444
1.38792	38.8889
1.38784	34.8889
1.38776	36.6667
1.38768	39.1111
1.3876	41.1111
1.38752	39.5556
1.38744	37.1111
1.38737	38
1.38729	39.5556
1.38721	40.6667
1.38713	38.8889
1.38705	37.7778
1.38697	35.7778
1.38689	39.3333
1.38682	40
1.38674	37.7778
1.38666	38.8889
1.38658	37.7778
1.3865	39.5556
1.38642	39.1111
1.38635	36
1.38627	40
1.38619	39.7778
1.38611	36.8889
1.38603	36.4444
1.38595	40
1.38588	38.6667
1.3858	38.4444
1.38572	36.4444
1.38564	38.6667
1.38556	40.8889
1.38548	40.8889
1.38541	38
1.38533	38.2222
1.38525	38.4444
1.38517	36.4444
1.38509	36.8889
1.38501	39.7778
1.38494	37.7778
1.38486	40.2222
1.38478	38.6667
1.3847	35.5556
1.38462	36.2222
1.38455	37.1111
1.38447	37.7778
1.38439	38
1.38431	36.8889
1.38423	40.2222
1.38415	35.5556
1.38408	40.4444
1.384	39.1111
1.38392	37.3333
1.38384	36.2222
1.38376	34.4444
1.38369	37.7778
1.38361	39.7778
1.38353	38.2222
1.38345	38.6667
1.38337	38.6667
1.3833	40.6667
1.38322	37.3333
1.38314	39.7778
1.38306	38.8889
1.38298	40
1.38291	40.4444
1.38283	36.6667
1.38275	39.1111
1.38267	37.3333
1.38259	38.6667
1.38252	37.5556
1.38244	36.6667
1.38236	39.5556
1.38228	38.8889
1.38221	39.1111
1.38213	39.7778
1.38205	36.6667
1.38197	37.7778
1.38189	36.8889
1.38182	38.4444
1.38174	37.5556
1.38166	36.8889
1.38158	37.7778
1.3815	37.1111
1.38143	35.1111
1.38135	35.5556
1.38127	37.5556
1.38119	39.5556
1.38112	36.4444
1.38104	37.5556
1.38096	40
1.38088	37.7778
1.38081	36.6667
1.38073	36.6667
1.38065	36.6667
1.38057	35.7778
1.38049	37.3333
1.38042	37.3333
1.38034	36.2222
1.38026	42.4444
1.38018	36.6667
1.38011	35.3333
1.38003	37.5556
1.37995	37.1111
1.37987	38.8889
1.3798	38
1.37972	39.5556
1.37964	39.7778
1.37956	37.1111
1.37949	36
1.37941	38
1.37933	40
1.37925	37.1111
1.37918	36.4444
1.3791	39.7778
1.37902	39.1111
1.37894	37.7778
1.37887	37.7778
1.37879	35.3333
1.37871	38.6667
1.37863	35.1111
1.37856	36.4444
1.37848	34.2222
1.3784	37.1111
1.37832	33.1111
1.37825	37.7778
1.37817	38.4444
1.37809	36
1.37801	37.5556
1.37794	37.1111
1.37786	36.4444
1.37778	34.6667
1.37771	38
1.37763	38.2222
1.37755	36
1.37747	37.1111
1.3774	37.1111
1.37732	39.5556
1.37724	37.7778
1.37716	38
1.37709	35.7778
1.37701	38.4444
1.37693	35.5556
1.37686	37.1111
1.37678	38.2222
1.3767	37.1111
1.37662	33.7778
1.37655	37.7778
1.37647	36
1.37639	36
1.37632	37.5556
1.37624	37.5556
1.37616	38.8889
1.37608	37.3333
1.37601	36.2222
1.37593	38.6667
1.37585	36
1.37578	38.2222
1.3757	35.5556
1.37562	34.2222
1.37554	37.5556
1.37547	42.2222
1.37539	38.4444
1.37531	38.4444
1.37524	36.2222
1.37516	38.2222
1.37508	41.1111
1.37501	34.4444
1.37493	35.7778
1.37485	39.3333
1.37477	38.8889
1.3747	36.6667
1.37462	38
1.37454	37.5556
1.37447	39.5556
1.37439	39.5556
1.37431	37.3333
1.37424	37.7778
1.37416	38.4444
1.37408	32.6667
1.37401	33.5556
1.37393	38.6667
1.37385	36.2222
1.37378	36.8889
1.3737	37.5556
1.37362	39.7778
1.37354	38.8889
1.37347	32.2222
1.37339	40.4444
1.37331	38.8889
1.37324	35.5556
1.37316	40
1.37308	38.2222
1.37301	37.7778
1.37293	38.8889
1.37285	38
1.37278	39.5556
1.3727	37.1111
1.37262	34.8889
1.37255	36.6667
1.37247	37.5556
1.37239	35.5556
1.37232	34.8889
1.37224	38.4444
1.37216	36.8889
1.37209	38.8889
1.37201	34
1.37193	35.7778
1.37186	39.1111
1.37178	38.2222
1.3717	36.4444
1.37163	35.7778
1.37155	38.2222
1.37148	35.7778
1.3714	37.7778
1.37132	35.7778
1.37125	37.5556
1.37117	37.7778
1.37109	33.3333
1.37102	36.2222
1.37094	36.8889
1.37086	34.8889
1.37079	36
1.37071	34.4444
1.37063	36.6667
1.37056	35.7778
1.37048	34
1.3704	35.5556
1.37033	37.5556
1.37025	35.1111
1.37018	37.1111
1.3701	37.7778
1.37002	36.8889
1.36995	36.8889
1.36987	39.1111
1.36979	36.4444
1.36972	38
1.36964	35.7778
1.36957	36.4444
1.36949	37.1111
1.36941	38
1.36934	37.1111
1.36926	36.8889
1.36918	38.2222
1.36911	36.2222
1.36903	36.8889
1.36896	38.6667
1.36888	34.6667
1.3688	37.1111
1.36873	35.5556
1.36865	34.6667
1.36857	36.4444
1.3685	34.4444
1.36842	34.8889
1.36835	35.1111
1.36827	37.1111
1.36819	35.7778
1.36812	34.6667
1.36804	34.4444
1.36797	37.7778
1.36789	35.1111
1.36781	33.1111
1.36774	37.1111
1.36766	37.1111
1.36758	36.2222
1.36751	36.6667
1.36743	35.7778
1.36736	35.5556
1.36728	34
1.3672	37.7778
1.36713	34
1.36705	35.7778
1.36698	32.6667
1.3669	35.3333
1.36683	37.3333
1.36675	38.4444
1.36667	36
1.3666	32.8889
1.36652	35.5556
1.36645	35.1111
1.36637	36.8889
1.36629	35.5556
1.36622	38.2222
1.36614	34.6667
1.36607	34.8889
1.36599	36.6667
1.36591	36.2222
1.36584	38
1.36576	39.3333
1.36569	34.6667
1.36561	35.5556
1.36554	38
1.36546	36.8889
1.36538	36.4444
1.36531	38.4444
1.36523	35.7778
1.36516	37.5556
1.36508	36.6667
1.36501	38
1.36493	33.5556
1.36485	35.5556
1.36478	38.4444
1.3647	38.8889
1.36463	38
1.36455	32.6667
1.36448	36.2222
1.3644	38.8889
1.36432	35.3333
1.36425	35.7778
1.36417	39.7778
1.3641	34.8889
1.36402	36.6667
1.36395	35.5556
1.36387	35.3333
1.36379	34.2222
1.36372	35.7778
1.36364	34.4444
1.36357	38.2222
1.36349	37.1111
1.36342	34.2222
1.36334	34.2222
1.36327	37.7778
1.36319	36.8889
1.36312	34.2222
1.36304	31.7778
1.36296	34.6667
1.36289	35.7778
1.36281	34.4444
1.36274	36
1.36266	36.4444
1.36259	35.7778
1.36251	36.4444
1.36244	32.8889
1.36236	36.2222
1.36229	40.8889
1.36221	40.2222
1.36213	33.5556
1.36206	34.4444
1.36198	36.6667
1.36191	34.8889
1.36183	34.4444
1.36176	35.3333
1.36168	34.2222
1.36161	34.8889
1.36153	33.1111
1.36146	36
1.36138	35.5556
1.36131	33.1111
1.36123	36
1.36116	35.1111
1.36108	37.3333
1.36101	32.6667
1.36093	32.8889
1.36085	36.4444
1.36078	37.3333
1.3607	38.2222
1.36063	36.4444
1.36055	33.5556
1.36048	35.7778
1.3604	34.2222
1.36033	34
1.36025	34.6667
1.36018	37.5556
1.3601	36.2222
1.36003	33.1111
1.35995	34
1.35988	35.3333
1.3598	38
1.35973	33.1111
1.35965	36.2222
1.35958	36.4444
1.3595	35.3333
1.35943	35.5556
1.35935	35.5556
1.35928	33.5556
1.3592	37.1111
1.35913	36.2222
1.35905	34.2222
1.35898	35.7778
1.3589	31.3333
1.35883	35.3333
1.35875	33.5556
1.35868	35.1111
1.3586	34.2222
1.35853	36.2222
1.35845	34.6667
1.35838	35.3333
1.3583	37.1111
1.35823	32.8889
1.35815	37.1111
1.35808	33.1111
1.358	33.3333
1.35793	34
1.35785	34.6667
1.35778	33.3333
1.3577	33.7778
1.35763	35.1111
1.35755	35.3333
1.35748	35.5556
1.35741	36.2222
1.35733	33.7778
1.35726	37.1111
1.35718	35.5556
1.35711	35.5556
1.35703	34.8889
1.35696	36
1.35688	34.2222
1.35681	33.3333
1.35673	34.2222
1.35666	34.2222
1.35658	36.8889
1.35651	34.2222
1.35643	35.1111
1.35636	34.2222
1.35628	33.3333
1.35621	35.5556
1.35614	36
1.35606	36.4444
1.35599	35.7778
1.35591	31.5556
1.35584	32.6667
1.35576	34.6667
1.35569	36.8889
1.35561	33.5556
1.35554	32.4444
1.35546	35.5556
1.35539	32
1.35532	31.3333
1.35524	34.6667
1.35517	31.7778
1.35509	33.7778
1.35502	33.3333
1.35494	35.5556
1.35487	36.8889
1.35479	34.2222
1.35472	35.3333
1.35464	34
1.35457	32.6667
1.3545	34
1.35442	32.4444
1.35435	34.2222
1.35427	32.4444
1.3542	31.5556
1.35412	32.8889
1.35405	34.6667
1.35398	35.5556
1.3539	33.1111
1.35383	34.2222
1.35375	34
1.35368	36.2222
1.3536	30.2222
1.35353	33.5556
1.35346	32.4444
1.35338	34
1.35331	35.7778
1.35323	32.4444
1.35316	36
1.35308	35.3333
1.35301	34.4444
1.35294	33.1111
1.35286	33.7778
1.35279	33.5556
1.35271	34.4444
1.35264	32.2222
1.35256	36.8889
1.35249	36
1.35242	36
1.35234	33.3333
1.35227	30.8889
1.35219	36
1.35212	32.6667
1.35205	34.8889
1.35197	34
1.3519	34.4444
1.35182	35.1111
1.35175	33.5556
1.35167	30.8889
1.3516	34.4444
1.35153	31.5556
1.35145	32.2222
1.35138	33.1111
1.3513	33.7778
1.35123	34.8889
1.35116	29.5556
1.35108	36
1.35101	32.4444
1.35093	32.6667
1.35086	28.4444
1.35079	32
1.35071	34.8889
1.35064	32.6667
1.35056	32.6667
1.35049	35.1111
1.35042	36.2222
1.35034	30.8889
1.35027	30.2222
1.3502	32
1.35012	34.8889
1.35005	34.8889
1.34997	33.1111
1.3499	33.1111
1.34983	34.8889
1.34975	33.3333
1.34968	35.1111
1.3496	34.2222
1.34953	33.3333
1.34946	33.1111
1.34938	33.7778
1.34931	31.1111
1.34924	34.4444
1.34916	34
1.34909	33.7778
1.34901	34.4444
1.34894	36
1.34887	32.2222
1.34879	31.5556
1.34872	36.4444
1.34865	35.7778
1.34857	32.6667
1.3485	32.4444
1.34842	32.4444
1.34835	30.4444
1.34828	30.2222
1.3482	31.1111
1.34813	33.5556
1.34806	32.4444
1.34798	33.1111
1.34791	31.5556
1.34784	36.4139
1.34776	32.8468
1.34769	30.2855
1.34762	32.9428
1.34754	32.2751
1.34747	30.8848
1.34739	31.1717
1.34732	32.8506
1.34725	36.0506
1.34717	32.8749
1.3471	32.0153
1.34703	30.6857
1.34695	32.0839
1.34688	32.3562
1.34681	31.5758
1.34673	35.0492
1.34666	31.8353
1.34659	32.8718
1.34651	35.6907
1.34644	34.2676
1.34637	34.5673
1.34629	29.899
1.34622	30.843
1.34615	32.6729
1.34607	33.267
1.346	30.4327
1.34593	34.724
1.34585	32.8221
1.34578	30.9915
1.34571	32.2447
1.34563	32.4181
1.34556	32.2509
1.34549	32.8005
1.34541	32.6149
1.34534	33.0031
1.34527	30.8961
1.34519	31.5926
1.34512	31.0556
1.34505	31.3571
1.34497	31.092
1.3449	32.095
1.34483	31.094
1.34475	31.3658
1.34468	33.1898
1.34461	31.3103
1.34453	31.2147
1.34446	31.1277
1.34439	31.7301
1.34431	30.1663
1.34424	31.854
1.34417	32.3287
1.34409	33.6578
1.34402	30.9445
1.34395	30.7872
1.34387	32.2196
1.3438	32.6661
1.34373	32.301
1.34366	33.6333
1.34358	32.2389
1.34351	32.2879
1.34344	32.7282
1.34336	33.5078
1.34329	31.6226
1.34322	31.5998
1.34314	33.1274
1.34307	29.7978
1.343	32.6468
1.34293	31.7432
1.34285	33.116
1.34278	33.3785
1.34271	30.693
1.34263	30.7028
1.34256	30.4896
1.34249	33.5928
1.34241	32.7753
1.34234	30.8211
1.34227	30.2909
1.3422	31.3611
1.34212	30.9554
1.34205	30.6667
1.34198	30.1397
1.3419	29.363
1.34183	33.7948
1.34176	29.4425
1.34169	31.1557
1.34161	30.0337
1.34154	28.2132
1.34147	33.3865
1.34139	33.1
1.34132	30.9447
1.34125	30.3233
1.34118	33.2534
1.3411	30.6926
1.34103	30.7116
1.34096	31.4417
1.34089	32.4673
1.34081	31.4858
1.34074	31.5786
1.34067	31.3919
1.34059	36.6696
1.34058	37.5556
1.34051	32.6667
1.34044	29.7778
1.34036	31.5556
1.34029	35.3333
1.34022	33.7778
1.34015	30.6667
1.34007	31.7778
1.34	30.2222
1.33993	32.6667
1.33985	34
1.33978	34.6667
1.33971	30.4444
1.33963	34.4444
1.33956	31.7778
1.33949	32.8889
1.33941	33.1111
1.33934	31.1111
1.33927	26.4444
1.3392	32.6667
1.33912	30.4444
1.33905	34.8889
1.33898	32.2222
1.3389	32.4444
1.33883	31.5556
1.33876	32.4444
1.33869	31.1111
1.33861	30.6667
1.33854	30.6667
1.33847	31.7778
1.33839	32.2222
1.33832	34
1.33825	33.1111
1.33817	32
1.3381	34
1.33803	34.8889
1.33796	35.7778
1.33788	31.5556
1.33781	31.3333
1.33774	30.6667
1.33766	34.4444
1.33759	33.5556
1.33752	28.6667
1.33745	32.6667
1.33737	32.2222
1.3373	30.2222
1.33723	28.4444
1.33716	32.2222
1.33708	34.4444
1.33701	30.4444
1.33694	33.3333
1.33686	31.7778
1.33679	30.6667
1.33672	29.5556
1.33665	32.2222
1.33657	32.8889
1.3365	29.3333
1.33643	31.5556
1.33636	31.3333
1.33628	33.7778
1.33621	28.6667
1.33614	29.5556
1.33607	33.3333
1.33599	29.1111
1.33592	32.2222
1.33585	32.6667
1.33577	32.4444
1.3357	33.7778
1.33563	32.2222
1.33556	32.4444
1.33548	32.8889
1.33541	33.7778
1.33534	34
1.33527	33.1111
1.33519	32.4444
1.33512	30.8889
1.33505	33.5556
1.33498	33.3333
1.3349	34.6667
1.33483	32.6667
1.33476	33.1111
1.33469	32
1.33461	36.2222
1.33454	31.1111
1.33447	29.1111
1.3344	31.7778
1.33433	32.8889
1.33425	28.2222
1.33418	32.4444
1.33411	34.8889
1.33404	34
1.33396	31.3333
1.33389	32.2222
1.33382	30.4444
1.33375	32
1.33367	32
1.3336	29.1111
1.33353	31.3333
1.33346	33.7778
1.33338	32.2222
1.33331	33.7778
1.33324	32
1.33317	33.5556
1.3331	34
1.33302	30.2222
1.33295	32.2222
1.33288	30.4444
1.33281	32
1.33273	30
1.33266	31.5556
1.33259	30.2222
1.33252	29.1111
1.33245	32.6667
1.33237	33.3333
1.3323	32.8889
1.33223	30.6667
1.33216	32
1.33208	32.6667
1.33201	32.8889
1.33194	30
1.33187	30.8889
1.3318	33.1111
1.33172	30.6667
1.33165	34
1.33158	33.5556
1.33151	29.1111
1.33144	33.5556
1.33136	30.4444
1.33129	35.3333
1.33122	32.8889
1.33115	29.3333
1.33108	32
1.331	35.3333
1.33093	31.7778
1.33086	33.3333
1.33079	30.6667
1.33072	32.8889
1.33064	33.5556
1.33057	31.3333
1.3305	36.6667
1.33043	31.7778
1.33036	33.1111
1.33028	32
1.33021	33.3333
1.33014	32
1.33007	32
1.33	31.3333
1.32992	31.7778
1.32985	34.4444
1.32978	32.8889
1.32971	36
1.32964	33.3333
1.32957	34.2222
1.32949	32.6667
1.32942	30.2222
1.32935	30
1.32928	30
1.32921	31.3333
1.32913	33.1111
1.32906	31.7778
1.32899	33.1111
1.32892	29.3333
1.32885	29.1111
1.32878	32
1.3287	31.5556
1.32863	32.8889
1.32856	32.8889
1.32849	31.5556
1.32842	30.4444
1.32835	33.7778
1.32827	34
1.3282	33.1111
1.32813	29.7778
1.32806	29.1111
1.32799	31.1111
1.32792	32
1.32784	30.4444
1.32777	29.3333
1.3277	30.8889
1.32763	30.2222
1.32756	32.6667
1.32749	28
1.32741	31.3333
1.32734	32
1.32727	28.4444
1.3272	33.3333
1.32713	29.7778
1.32706	31.5556
1.32699	31.5556
1.32691	34.2222
1.32684	31.3333
1.32677	30.6667
1.3267	31.5556
1.32663	33.3333
1.32656	29.7778
1.32648	30.6667
1.32641	34.6667
1.32634	32.6667
1.32627	33.1111
1.3262	33.5556
1.32613	32.6667
1.32606	31.5556
1.32598	32
1.32591	32.4444
1.32584	30.6667
1.32577	32.8889
1.3257	35.1111
1.32563	32.2222
1.32556	29.7778
1.32548	32.2222
1.32541	31.7778
1.32534	34.2222
1.32527	31.3333
1.3252	34.4444
1.32513	34.2222
1.32506	34
1.32499	33.1111
1.32491	33.7778
1.32484	36.8889
1.32477	34.2222
1.3247	30.4444
1.32463	32.8889
1.32456	31.7778
1.32449	31.7778
1.32442	29.7778
1.32434	33.1111
1.32427	30.4444
1.3242	32.2222
1.32413	33.1111
1.32406	30.8889
1.32399	33.1111
1.32392	29.7778
1.32385	31.5556
1.32378	33.3333
1.3237	29.7778
1.32363	31.5556
1.32356	34
1.32349	35.3333
1.32342	34.2222
1.32335	32.4444
1.32328	29.3333
1.32321	33.7778
1.32314	32.8889
1.32306	33.1111
1.32299	31.7778
1.32292	31.7778
1.32285	32
1.32278	30.6667
1.32271	36
1.32264	32.6667
1.32257	29.3333
1.3225	27.1111
1.32243	31.5556
1.32235	34.6667
1.32228	32.2222
1.32221	31.1111
1.32214	33.1111
1.32207	33.5556
1.322	30.2222
1.32193	32.8889
1.32186	30.6667
1.32179	30.8889
1.32172	31.7778
1.32165	31.3333
1.32157	32.2222
1.3215	33.5556
1.32143	30.8889
1.32136	29.7778
1.32129	30.4444
1.32122	31.5556
1.32115	33.3333
1.32108	31.1111
1.32101	33.7778
1.32094	30.2222
1.32087	34.2222
1.3208	30.8889
1.32072	30.2222
1.32065	30.8889
1.32058	33.3333
1.32051	31.1111
1.32044	31.3333
1.32037	32
1.3203	33.1111
1.32023	32.4444
1.32016	33.3333
1.32009	34.4444
1.32002	30.2222
1.31995	32.6667
1.31988	30.8889
1.31981	32.2222
1.31973	33.3333
1.31966	30.8889
1.31959	30.6667
1.31952	30.8889
1.31945	33.5556
1.31938	32.8889
1.31931	32.6667
1.31924	30.8889
1.31917	32.6667
1.3191	34.4444
1.31903	35.5556
1.31896	32
1.31889	31.7778
1.31882	30.8889
1.31875	30.6667
1.31868	31.3333
1.31861	31.5556
1.31853	30.6667
1.31846	31.7778
1.31839	30.8889
1.31832	33.1111
1.31825	33.5556
1.31818	31.7778
1.31811	32.8889
1.31804	31.7778
1.31797	30.4444
1.3179	33.3333
1.31783	33.5556
1.31776	32
1.31769	33.5556
1.31762	32.6667
1.31755	32.2222
1.31748	31.7778
1.31741	32.4444
1.31734	33.7778
1.31727	33.7778
1.3172	30.6667
1.31713	30.2222
1.31706	32.8889
1.31699	31.5556
1.31692	32.2222
1.31685	32.6667
1.31677	29.5556
1.3167	32.2222
1.31663	31.5556
1.31656	33.5556
1.31649	32.8889
1.31642	29.1111
1.31635	30.6667
1.31628	31.3333
1.31621	29.7778
1.31614	30
1.31607	31.3333
1.316	31.7778
1.31593	34
1.31586	30.6667
1.31579	29.1111
1.31572	29.3333
1.31565	34
1.31558	31.1111
1.31551	29.5556
1.31544	33.3333
1.31537	32.2222
1.3153	32.4444
1.31523	32.8889
1.31516	32.4444
1.31509	32
1.31502	30.2222
1.31495	31.5556
1.31488	33.5556
1.31481	33.1111
1.31474	32.2222
1.31467	35.1111
1.3146	32.4444
1.31453	31.7778
1.31446	33.5556
1.31439	31.3333
1.31432	28.6667
1.31425	33.5556
1.31418	30
1.31411	30.6667
1.31404	32
1.31397	32.6667
1.3139	33.5556
1.31383	29.3333
1.31376	30.8889
1.31369	32
1.31362	31.3333
1.31355	32
1.31348	29.7778
1.31341	32.8889
1.31334	32.6667
1.31327	30.2222
1.3132	32.6667
1.31313	31.5556
1.31306	32.4444
1.31299	30.2222
1.31292	30.8889
1.31285	33.3333
1.31278	33.3333
1.31271	32
1.31264	33.5556
1.31257	33.7778
1.3125	34.8889
1.31243	32
1.31236	31.1111
1.31229	30.2222
1.31222	31.1111
1.31215	35.1111
1.31208	29.7778
1.31201	30.2222
1.31194	30.8889
1.31187	34.2222
1.31181	34.4444
1.31174	33.1111
1.31167	31.5556
1.3116	33.3333
1.31153	32.6667
1.31146	30.6667
1.31139	32.4444
1.31132	32.2222
1.31125	34.8889
1.31118	32.4444
1.31111	31.3333
1.31104	29.3333
1.31097	30.6667
1.3109	32
1.31083	35.3333
1.31076	31.1111
1.31069	30.4444
1.31062	30.8889
1.31055	33.7778
1.31048	30.8889
1.31041	31.3333
1.31034	34
1.31027	34.6667
1.3102	31.3333
1.31013	30.4444
1.31007	30.8889
1.31	29.7778
1.30993	34.6667
1.30986	32.8889
1.30979	31.1111
1.30972	34.6667
1.30965	30.8889
1.30958	32.8889
1.30951	32.6667
1.30944	32.2222
1.30937	30.2222
1.3093	30.6667
1.30923	31.5556
1.30916	32
1.30909	33.1111
1.30902	29.1111
1.30895	34.2222
1.30889	32
1.30882	29.5556
1.30875	33.5556
1.30868	31.1111
1.30861	30
1.30854	33.7778
1.30847	31.1111
1.3084	32.4444
1.30833	32.4444
1.30826	32
1.30819	33.7778
1.30812	32.2222
1.30805	31.3333
1.30798	31.5556
1.30792	33.3333
1.30785	30.4444
1.30778	28.8889
1.30771	32.8889
1.30764	31.7778
1.30757	31.5556
1.3075	31.1111
1.30743	28.8889
1.30736	32.6667
1.30729	32.4444
1.30722	30.8889
1.30715	35.1111
1.30708	33.1111
1.30702	32.4444
1.30695	31.5556
1.30688	30.6667
1.30681	30.6667
1.30674	29.3333
1.30667	30.8889
1.3066	29.1111
1.30653	32
1.30646	30.2222
1.30639	30.6667
1.30632	31.5556
1.30626	32.6667
1.30619	31.7778
1.30612	31.1111
1.30605	34.6667
1.30598	31.3333
1.30591	31.7778
1.30584	32
1.30577	32.8889
1.3057	29.7778
1.30563	29.1111
1.30557	32.6667
1.3055	30.8889
1.30543	31.5556
1.30536	29.5556
1.30529	30.2222
1.30522	29.5556
1.30515	35.5556
1.30508	32.4444
1.30501	32.4444
1.30495	33.3333
1.30488	30
1.30481	29.7778
1.30474	30
1.30467	31.3333
1.3046	32.8889
1.30453	30.8889
1.30446	33.1111
1.30439	34.2222
1.30433	32
1.30426	32.2222
1.30419	33.1111
1.30412	27.1111
1.30405	31.7778
1.30398	30
1.30391	30.8889
1.30384	28.6667
1.30378	29.1111
1.30371	30.6667
1.30364	34
1.30357	34.6667
1.3035	29.1111
1.30343	31.7778
1.30336	32.2222
1.30329	30.6667
1.30323	30.8889
1.30316	31.7778
1.30309	31.5556
1.30302	30.8889
1.30295	30
1.30288	29.7778
1.30281	29.5556
1.30275	30.4444
1.30268	32
1.30261	30.8889
1.30254	34.2222
1.30247	29.5556
1.3024	33.7778
1.30233	31.1111
1.30227	31.3333
1.3022	31.3333
1.30213	33.7778
1.30206	32.4444
1.30199	30.2222
1.30192	28.2222
1.30185	30.2222
1.30179	32.2222
1.30172	31.7778
1.30165	30.6667
1.30158	32
1.30151	33.3333
1.30144	34.4444
1.30137	31.1111
1.30131	29.5556
1.30124	29.3333
1.30117	31.3333
1.3011	31.3333
1.30103	32.2222
1.30096	32.8889
1.3009	30.8889
1.30083	31.5556
1.30076	28.8889
1.30069	30.4444
1.30062	31.1111
1.30055	31.1111
1.30049	31.1111
1.30042	29.7778
1.30035	33.1111
1.30028	29.7778
1.30021	32
1.30014	30.8889
1.30008	29.3333
1.30001	30
